idx,t_dev_ms,t_host_ms,ir,red,ax,ay,az,gx,gy,gz
164,1640,1791070272673,725,869,-0.9319,-0.3765,0.179,4.82,-5.48,4.72
165,1650,1791070272673,723,873,-0.9539,-0.2935,0.1914,7.79,-5.21,7.51
166,1660,1791070272673,724,876,-0.9392,-0.25,0.2605,4.49,-8.26,4.92
167,1670,1791070272673,720,882,-0.9153,-0.2402,0.3057,-0.63,-5.04,0.23
168,1680,1791070272718,723,873,-0.9048,-0.2393,0.2473,-5.08,2.61,-4.85
169,1690,1791070272718,718,871,-0.8953,-0.2637,0.1597,-8.69,5.59,-9.33
170,1700,1791070272718,721,873,-0.8552,-0.2637,0.1001,-9.33,3.88,-11.21
171,1710,1791070272718,727,878,-0.8579,-0.282,0.1047,-8.34,1.73,-11.39
172,1720,1791070272747,727,875,-0.8301,-0.2766,0.0889,-8.11,1.56,-9.91
173,1730,1791070272747,725,878,-0.8552,-0.3145,0.0605,-3.47,-4.82,-7.74
174,1740,1791070272747,722,870,-0.9119,-0.3379,0.2107,7.19,-20.43,-4.09
175,1750,1791070272747,722,873,-0.929,-0.3123,0.4067,17.24,-27.22,-0.23
176,1760,1791070272794,716,872,-0.9395,-0.2666,0.4409,22.09,-19.63,1.53
177,1770,1791070272794,723,865,-0.9502,-0.207,0.4233,25.97,-12.12,-0.81
178,1780,1791070272794,719,874,-0.9336,-0.21,0.4255,23.02,-9.3,-6.98
179,1790,1791070272794,721,875,-0.8989,-0.2295,0.3796,14.41,-3.37,-13.98
180,1800,1791070272838,720,874,-0.8774,-0.2317,0.3086,6.24,3.44,-19.89
181,1810,1791070272838,725,876,-0.8601,-0.292,0.2346,-1.88,4.47,-24.7
182,1820,1791070272838,723,880,-0.843,-0.4163,0.2212,-7.82,2.05,-25.62
183,1830,1791070272838,719,882,-0.9067,-0.5015,0.2786,-2.21,-2.81,-18.79
184,1840,1791070272867,721,877,-0.9211,-0.4792,0.3452,8.5,-6.34,-8.87
185,1850,1791070272867,718,871,-0.8987,-0.3738,0.3804,16.21,-6.89,-1.71
186,1860,1791070272867,726,874,-0.8669,-0.3298,0.3848,15.6,-4.38,-1.88
187,1870,1791070272867,720,878,-0.8613,-0.3298,0.3735,8.84,-1.02,-5.53
188,1880,1791070272912,720,878,-0.8586,-0.3403,0.3169,1.28,3.56,-8.98
189,1890,1791070272912,726,882,-0.8586,-0.3254,0.2302,-2.61,5.27,-11.27
190,1900,1791070272912,720,874,-0.8411,-0.2869,0.1877,-3.25,1.59,-13.28
191,1910,1791070272912,722,875,-0.8093,-0.3005,0.2009,-3.33,-3.86,-15.13
192,1920,1791070272957,720,877,-0.7769,-0.3337,0.2397,-5.21,-3.02,-15.94
193,1930,1791070272957,721,874,-0.76,-0.3601,0.2249,-6.23,0.58,-14.02
194,1940,1791070272957,723,873,-0.7351,-0.3689,0.1826,-3.91,0.32,-9.95
195,1950,1791070272957,720,875,-0.7178,-0.3704,0.1821,2.75,-1.97,-5.5
196,1960,1791070272989,720,883,-0.7463,-0.3704,0.2319,12.43,-8.41,-0.64
197,1970,1791070272989,721,872,-0.7837,-0.3772,0.3286,22.08,-15.53,3.39
198,1980,1791070272989,725,872,-0.7971,-0.3459,0.415,27.24,-15.36,6.89
199,1990,1791070272989,716,871,-0.8079,-0.2832,0.4038,27.16,-6.35,7.71
200,2000,1791070273032,717,871,-0.8628,-0.2703,0.3779,25.42,-0.34,4.21
201,2010,1791070273032,720,878,-0.8865,-0.3606,0.4424,21.91,-4.11,-0.81
202,2020,1791070273032,724,871,-0.8789,-0.4451,0.5376,21.62,-5.65,-3.01
203,2030,1791070273032,727,873,-0.8572,-0.4883,0.5447,23.74,0.92,-1.21
204,2040,1791070273077,720,873,-0.8564,-0.5085,0.4185,26.37,12.72,4.26
205,2050,1791070273077,718,872,-0.8386,-0.4575,0.2554,27.8,19.88,9.92
206,2060,1791070273077,720,873,-0.8179,-0.3696,0.1963,27.37,16.18,11.48
207,2070,1791070273077,726,876,-0.7891,-0.356,0.188,22.27,9.5,9.25
208,2080,1791070273107,727,874,-0.8103,-0.3469,0.2061,19.89,6.27,7.53
209,2090,1791070273107,726,881,-0.8296,-0.3062,0.2068,16.52,7.44,7.71
210,2100,1791070273107,724,875,-0.8677,-0.262,0.228,18.64,6.47,7.79
211,2110,1791070273107,728,870,-0.8748,-0.248,0.2988,23.5,4.69,6.29
212,2120,1791070273152,724,873,-0.8574,-0.1929,0.2495,24.29,9.54,3.07
213,2130,1791070273152,720,873,-0.9053,-0.2021,0.1973,20.02,14.35,-4.03
214,2140,1791070273152,722,870,-0.8928,-0.2646,0.0737,7.5,16.46,-10.49
215,2150,1791070273152,725,870,-0.8987,-0.2563,0.0046,-0.87,9.89,-14.66
216,2160,1791070273197,724,873,-0.9248,-0.2942,0.0542,-9.13,-4.69,-16.93
217,2170,1791070273197,721,876,-0.9714,-0.3613,0.123,-14.49,-9.18,-15.91
218,2180,1791070273197,725,872,-1.0356,-0.3877,0.1326,-8.27,-13.54,-8.61
219,2190,1791070273197,721,876,-1.0742,-0.4192,0.2183,8.35,-28.02,0.75
220,2200,1791070273226,723,871,-1.0583,-0.4075,0.3047,27.04,-40.41,9.82
221,2210,1791070273226,724,875,-1.0325,-0.3748,0.3931,42.93,-43.97,16.05
222,2220,1791070273226,727,870,-1.0315,-0.3792,0.4202,48.08,-40.06,18.09
223,2230,1791070273226,723,871,-1.0129,-0.3633,0.4241,46.31,-32.84,16.08
224,2240,1791070273272,721,874,-0.9604,-0.3826,0.438,35.42,-24.06,10.64
225,2250,1791070273272,727,873,-0.9265,-0.4753,0.4541,17.47,-9.3,5.92
226,2260,1791070273272,728,879,-0.9019,-0.4998,0.2832,1.51,12.93,7.11
227,2270,1791070273272,726,878,-0.8665,-0.4226,0.0425,-13.92,23.45,12.0
228,2280,1791070273317,726,877,-0.8955,-0.3542,0.0203,-20.37,11.56,15.68
229,2290,1791070273317,727,880,-0.9507,-0.2756,0.2263,-10.56,-13.44,19.86
230,2300,1791070273317,726,874,-0.8921,-0.2339,0.4231,5.59,-26.18,21.39
231,2310,1791070273317,725,877,-0.927,-0.2063,0.4426,20.69,-22.06,20.78
232,2320,1791070273347,725,871,-0.9375,-0.1941,0.4392,41.22,-18.21,14.96
233,2330,1791070273347,724,869,-0.8992,-0.2227,0.4949,45.6,-18.11,7.15
234,2340,1791070273347,721,879,-0.8589,-0.2532,0.4802,39.95,-4.63,-0.26
235,2350,1791070273347,719,873,-0.8364,-0.2676,0.3022,33.15,13.97,-4.82
236,2360,1791070273393,720,874,-0.8833,-0.292,0.093,23.02,23.68,-4.6
237,2370,1791070273393,720,873,-0.9202,-0.2659,-0.0562,15.18,20.34,-0.41
238,2380,1791070273393,720,876,-0.9744,-0.207,-0.0134,14.66,3.08,4.7
239,2390,1791070273393,728,876,-0.98,-0.1318,0.1584,16.85,-14.32,5.01
240,2400,1791070273437,722,875,-0.9771,-0.1514,0.3345,15.08,-20.38,-0.21
241,2410,1791070273437,725,872,-1.0537,-0.2373,0.4292,15.16,-15.3,-5.33
242,2420,1791070273437,723,876,-1.1543,-0.3435,0.4465,15.94,-6.98,-7.42
243,2430,1791070273437,724,876,-1.5481,-0.2871,-0.0059,-5.85,34.08,5.11
244,2440,1791070273466,726,875,-1.7275,-0.4043,-0.0999,0.27,32.44,-9.73
245,2450,1791070273466,724,877,-1.0945,-0.2803,0.7263,15.63,-63.88,-6.11
246,2460,1791070273466,723,878,-0.6665,-0.2747,1.0547,-6.9,-46.02,1.27
247,2470,1791070273466,724,877,-0.7881,-0.2896,0.311,-6.49,66.99,5.08
248,2480,1791070273512,725,872,-1.0977,-0.2573,-0.3289,-0.2,81.05,2.87
249,2490,1791070273512,719,878,-1.0134,-0.4167,-0.0562,-19.56,-3.56,-3.04
250,2500,1791070273512,716,878,-0.8972,-0.4861,0.4465,-21.47,-42.09,0.09
251,2510,1791070273512,719,873,-0.9404,-0.4485,0.5999,-10.23,-21.27,12.06
252,2520,1791070273557,722,875,-0.9487,-0.3982,0.4558,-0.29,3.05,21.04
253,2530,1791070273557,721,874,-0.9316,-0.3086,0.3401,9.89,9.6,26.14
254,2540,1791070273557,726,875,-0.8594,-0.2378,0.3374,6.89,3.08,26.81
255,2550,1791070273557,725,876,-0.7817,-0.1775,0.2957,-1.76,5.59,24.98
256,2560,1791070273587,717,873,-0.7532,-0.0979,0.2358,-8.41,9.07,21.42
257,2570,1791070273587,720,883,-0.7434,-0.0784,0.2529,-13.88,3.89,16.14
258,2580,1791070273587,719,887,-0.7161,-0.1191,0.3489,-14.9,-1.02,10.35
259,2590,1791070273587,716,875,-0.751,-0.1702,0.3979,-12.63,0.34,8.18
260,2600,1791070273633,721,875,-0.8025,-0.2393,0.4031,-4.78,4.23,8.47
261,2610,1791070273633,719,871,-0.8403,-0.2327,0.4255,8.38,5.83,12.47
262,2620,1791070273633,720,870,-0.8606,-0.2012,0.4446,18.46,7.28,15.6
263,2630,1791070273633,725,879,-0.8398,-0.1372,0.4189,19.62,11.48,15.22
264,2640,1791070273693,718,874,-0.8123,-0.0684,0.3438,14.06,19.24,9.89
265,2650,1791070273693,724,873,-0.8242,-0.0234,0.2502,3.19,25.6,0.53
266,2660,1791070273693,727,875,-0.8374,-0.0249,0.1685,-10.98,26.84,-10.6
267,2670,1791070273693,721,873,-0.8174,-0.0242,0.1143,-21.54,23.8,-21.85
268,2680,1791070273706,720,875,-0.8108,-0.0596,0.1113,-27.13,18.63,-32.85
269,2690,1791070273706,725,880,-0.8652,-0.2476,0.2236,-30.98,11.56,-43.34
270,2700,1791070273706,721,877,-0.9216,-0.4888,0.3196,-28.75,8.0,-44.76
271,2710,1791070273706,721,879,-0.9453,-0.6152,0.3313,-16.31,9.57,-34.85
272,2720,1791070273752,727,872,-0.95,-0.6501,0.2537,-1.3,6.63,-19.8
273,2730,1791070273752,723,880,-0.8694,-0.4978,0.1511,6.47,1.76,-5.89
274,2740,1791070273752,718,873,-0.8237,-0.3147,0.0889,1.37,-3.44,-0.24
275,2750,1791070273752,721,869,-0.813,-0.2334,0.0439,-11.57,-8.37,-3.21
276,2760,1791070273796,718,872,-0.821,-0.2097,0.0159,-22.44,-13.05,-9.79
277,2770,1791070273796,722,874,-0.8484,-0.2263,0.0132,-29.25,-20.55,-14.38
278,2780,1791070273796,723,882,-0.8845,-0.2883,0.0818,-28.02,-30.89,-15.15
279,2790,1791070273796,725,876,-0.9519,-0.3623,0.2427,-17.76,-42.79,-10.93
280,2800,1791070273841,718,884,-0.9607,-0.407,0.3772,-4.75,-45.42,-2.75
281,2810,1791070273841,720,876,-0.9592,-0.3501,0.4055,5.4,-39.24,6.23
282,2820,1791070273841,723,875,-0.978,-0.3403,0.4495,10.61,-32.14,12.46
283,2830,1791070273841,724,874,-0.9685,-0.312,0.4524,11.97,-26.69,17.39
284,2840,1791070273871,722,881,-0.9204,-0.231,0.4238,10.17,-20.7,19.19
285,2850,1791070273871,723,881,-0.8501,-0.1492,0.354,4.37,-14.27,17.92
286,2860,1791070273871,723,874,-0.8101,-0.1013,0.2957,-3.05,-10.09,13.27
287,2870,1791070273871,721,875,-0.7834,-0.1096,0.2832,-7.24,-8.67,7.86
288,2880,1791070273917,725,875,-0.8098,-0.1418,0.2969,-4.29,-11.18,4.11
289,2890,1791070273917,721,876,-0.833,-0.1807,0.3889,2.78,-16.84,2.38
290,2900,1791070273917,727,871,-0.8369,-0.2449,0.4675,10.11,-17.56,2.75
291,2910,1791070273917,727,871,-0.8464,-0.2446,0.4534,18.99,-10.93,4.35
292,2920,1791070273947,726,871,-0.8499,-0.2234,0.4075,24.53,-8.15,3.47
293,2930,1791070273947,722,880,-0.8274,-0.2234,0.4131,21.74,-7.76,-0.18
294,2940,1791070273947,724,877,-0.8213,-0.217,0.3525,14.75,-0.09,-3.88
295,2950,1791070273947,727,875,-0.8333,-0.1643,0.2571,7.63,6.76,-9.37
296,2960,1791070273992,719,877,-0.8472,-0.1516,0.2444,-1.3,4.26,-17.21
297,2970,1791070273992,720,877,-0.8584,-0.2007,0.3196,-7.8,-0.93,-25.97
298,2980,1791070273992,721,872,-0.8835,-0.313,0.387,-9.18,-3.33,-31.94
299,2990,1791070273992,725,874,-0.927,-0.4478,0.4441,-4.6,-2.75,-30.81
300,3000,1791070274080,721,876,-0.9475,-0.5156,0.4441,4.61,-1.76,-24.37
301,3010,1791070274080,721,878,-0.8979,-0.4868,0.3457,9.48,2.66,-15.1
302,3020,1791070274080,721,876,-0.876,-0.366,0.1875,8.49,7.18,-9.56
303,3030,1791070274080,718,874,-0.8831,-0.2886,0.136,-0.53,-1.89,-10.78
304,3040,1791070274082,718,877,-0.8767,-0.3071,0.1433,-9.59,-10.38,-15.34
305,3050,1791070274082,719,871,-0.9377,-0.3831,0.1611,-14.47,-15.68,-18.76
306,3060,1791070274082,725,874,-0.9824,-0.4719,0.2405,-13.59,-24.99,-17.36
307,3070,1791070274082,724,869,-0.9849,-0.5154,0.365,-7.57,-33.91,-11.22
308,3080,1791070274142,719,874,-0.9763,-0.541,0.4885,0.27,-32.67,-3.31
309,3090,1791070274142,723,877,-0.9912,-0.5217,0.489,9.15,-25.53,5.16
310,3100,1791070274142,728,872,-0.9609,-0.4604,0.4692,12.85,-21.42,10.06
311,3110,1791070274142,723,875,-0.9221,-0.4077,0.4854,8.85,-19.13,10.99
312,3120,1791070274201,725,873,-0.876,-0.3911,0.4912,1.27,-11.01,9.19
313,3130,1791070274201,723,875,-0.8665,-0.3679,0.427,-4.73,-0.15,7.62
314,3140,1791070274201,722,886,-0.855,-0.2937,0.3564,-7.51,2.38,6.9
315,3150,1791070274201,726,873,-0.8062,-0.1663,0.3564,-8.38,0.61,4.89
316,3160,1791070274202,726,877,-0.7749,-0.0754,0.3911,-12.7,3.16,-1.95
317,3170,1791070274202,726,877,-0.8015,-0.0857,0.4392,-14.55,5.47,-9.88
318,3180,1791070274202,726,875,-0.8088,-0.1157,0.4856,-9.94,5.83,-16.0
319,3190,1791070274202,721,877,-0.833,-0.1309,0.5559,-0.56,5.11,-19.07
320,3200,1791070274261,726,875,-0.8359,-0.1387,0.5674,8.96,7.25,-22.05
321,3210,1791070274261,724,880,-0.8496,-0.1589,0.5955,15.85,8.05,-26.6
322,3220,1791070274261,724,875,-0.8203,-0.2375,0.6067,11.21,12.63,-32.85
323,3230,1791070274261,727,876,-0.8242,-0.3164,0.5002,5.79,24.38,-37.48
324,3240,1791070274322,720,873,-0.8523,-0.3572,0.4041,2.08,28.02,-39.37
325,3250,1791070274322,722,877,-0.8066,-0.366,0.3196,-0.56,23.19,-39.89
326,3260,1791070274322,722,876,-0.7756,-0.3655,0.272,-5.66,19.82,-40.82
327,3270,1791070274322,722,877,-0.7896,-0.446,0.2407,-10.08,18.53,-40.29
328,3280,1791070274322,720,871,-0.7812,-0.449,0.2114,-11.65,14.49,-37.85
329,3290,1791070274322,721,878,-0.7983,-0.4739,0.2144,-9.44,7.91,-35.66
330,3300,1791070274322,724,885,-0.8237,-0.5154,0.2488,-5.21,0.17,-34.0
331,3310,1791070274322,727,877,-0.8528,-0.574,0.3059,-1.24,-7.37,-31.33
332,3320,1791070274382,725,877,-0.8594,-0.6194,0.3403,2.69,-11.18,-27.15
333,3330,1791070274382,723,875,-0.8447,-0.6577,0.3271,8.46,-9.42,-19.69
334,3340,1791070274382,730,869,-0.8191,-0.6155,0.271,17.08,-3.18,-10.87
335,3350,1791070274382,729,876,-0.8174,-0.5518,0.196,20.32,2.6,-3.05
336,3360,1791070274440,726,876,-0.8389,-0.5312,0.156,16.9,-1.86,1.33
337,3370,1791070274440,721,875,-0.8694,-0.5154,0.2185,16.27,-15.15,6.23
338,3380,1791070274440,721,875,-0.8223,-0.4136,0.2329,18.44,-24.18,8.63
339,3390,1791070274440,724,880,-0.7974,-0.3962,0.2769,15.57,-26.09,5.31
340,3400,1791070274442,724,874,-0.8235,-0.4663,0.3223,10.72,-24.38,1.07
341,3410,1791070274442,725,875,-0.8313,-0.5415,0.3855,3.27,-18.73,-2.14
342,3420,1791070274442,720,875,-0.824,-0.5715,0.3711,-3.73,-11.08,-0.21
343,3430,1791070274442,731,884,-0.8274,-0.5662,0.3201,-6.27,-4.85,4.11
344,3440,1791070274501,730,880,-0.8401,-0.5493,0.251,-7.15,-7.15,9.97
345,3450,1791070274501,730,877,-0.8374,-0.4949,0.2283,-3.77,-14.66,16.72
346,3460,1791070274501,723,878,-0.8394,-0.4453,0.2803,-0.95,-23.02,22.05
347,3470,1791070274501,725,877,-0.8425,-0.3779,0.3391,3.22,-28.14,26.64
348,3480,1791070274562,724,877,-0.8389,-0.2637,0.3879,15.34,-30.58,29.69
349,3490,1791070274562,724,873,-0.8242,-0.1672,0.4788,26.69,-29.94,27.82
350,3500,1791070274562,727,875,-0.8101,-0.1572,0.6035,31.42,-21.83,20.9
351,3510,1791070274562,724,873,-0.8862,-0.1362,0.5342,35.45,-9.82,16.44
352,3520,1791070274562,729,876,-0.9028,-0.1372,0.5432,39.39,-16.32,12.26
353,3530,1791070274562,726,875,-0.9136,-0.1838,0.5986,45.3,-22.47,6.89
354,3540,1791070274562,729,882,-0.8821,-0.2559,0.5713,50.31,-19.77,2.73
355,3550,1791070274562,724,882,-0.8674,-0.3206,0.5022,53.85,-16.72,3.33
356,3560,1791070274622,728,880,-0.8574,-0.3528,0.48,51.74,-14.37,4.69
357,3570,1791070274622,722,878,-0.8005,-0.3586,0.4827,45.04,-10.93,9.66
358,3580,1791070274622,730,873,-0.8672,-0.2744,0.512,37.8,-7.24,20.44
359,3590,1791070274622,724,879,-0.8674,-0.2212,0.53,22.5,1.95,12.14
360,3600,1791070274681,725,877,-0.8582,-0.2161,0.4707,8.93,4.95,2.37
361,3610,1791070274681,730,886,-0.8606,-0.3186,0.4033,2.9,0.66,-6.03
362,3620,1791070274681,728,878,-0.8999,-0.3374,0.3923,8.09,-9.71,-12.24
363,3630,1791070274681,725,877,-0.9028,-0.2878,0.4268,6.73,-22.61,-22.14
364,3640,1791070274682,720,878,-0.8564,-0.2888,0.4324,0.14,-36.14,-38.0
365,3650,1791070274682,727,873,-0.8083,-0.4224,0.5339,-0.17,-37.25,-52.03
366,3660,1791070274682,727,878,-0.8218,-0.5298,0.551,1.08,-29.07,-48.93
367,3670,1791070274682,724,880,-0.7976,-0.5908,0.5457,4.6,-12.14,-39.8
368,3680,1791070274742,727,877,-0.8228,-0.5325,0.4651,8.82,6.14,-30.06
369,3690,1791070274742,726,872,-0.8052,-0.4287,0.3831,6.5,9.92,-22.79
370,3700,1791070274742,725,877,-0.7585,-0.4131,0.3691,4.4,1.79,-19.21
371,3710,1791070274742,726,876,-0.7444,-0.4148,0.428,5.37,-1.24,-16.98
372,3720,1791070274802,725,876,-0.6987,-0.4221,0.4109,8.84,5.92,-14.73
373,3730,1791070274802,730,877,-0.7534,-0.4763,0.4072,10.08,10.35,-9.37
374,3740,1791070274802,726,882,-0.7407,-0.4612,0.4309,8.7,14.08,-1.51
375,3750,1791070274802,723,880,-0.6826,-0.4011,0.4314,13.25,7.36,17.89
376,3760,1791070274803,726,878,-0.7678,-0.2573,0.5447,10.81,4.53,33.51
377,3770,1791070274803,723,881,-0.8064,-0.2476,0.4941,6.26,13.19,29.57
378,3780,1791070274803,726,875,-0.8325,-0.2229,0.5078,12.0,15.57,20.9
379,3790,1791070274803,731,872,-0.8943,-0.0654,0.3687,26.38,16.79,21.97
380,3800,1791070274861,726,875,-0.7576,-0.3267,0.3806,15.66,-8.52,13.57
381,3810,1791070274861,733,877,-0.7974,-0.4016,0.4971,24.85,-8.46,13.5
382,3820,1791070274861,726,883,-0.7642,-0.4753,0.4543,28.4,3.42,20.06
383,3830,1791070274861,727,884,-0.7817,-0.3057,0.4031,22.76,9.82,29.4
384,3840,1791070274923,724,878,-0.8262,-0.2634,0.4043,13.44,7.16,29.02
385,3850,1791070274923,732,881,-0.8162,-0.2605,0.4033,4.5,7.63,19.57
386,3860,1791070274923,725,872,-0.8191,-0.3125,0.3779,1.77,4.29,13.54
387,3870,1791070274923,723,877,-0.8516,-0.3596,0.3159,2.61,-5.76,13.56
388,3880,1791070274923,729,872,-0.8467,-0.2561,0.3701,8.02,-27.74,18.35
389,3890,1791070274923,726,876,-0.8723,-0.144,0.4055,13.19,-37.57,13.76
390,3900,1791070274923,728,871,-0.7705,-0.1169,0.4731,2.56,-35.92,-6.66
391,3910,1791070274923,726,874,-0.7324,-0.197,0.4187,-13.15,-26.11,-23.95
392,3920,1791070274982,727,875,-0.7219,-0.3374,0.5046,-17.85,-17.77,-26.52
393,3930,1791070274982,725,874,-0.7781,-0.2793,0.376,-17.05,-4.24,-29.37
394,3940,1791070274982,731,878,-0.8606,-0.2974,0.3398,-18.93,-21.22,-28.14
395,3950,1791070274982,728,881,-0.8313,-0.3328,0.4341,-17.3,-49.98,-26.31
396,3960,1791070275040,727,879,-0.8132,-0.4033,0.6382,-0.69,-59.88,-18.44
397,3970,1791070275040,723,881,-0.762,-0.3821,0.6812,14.29,-46.37,-10.44
398,3980,1791070275040,725,881,-0.7817,-0.3381,0.5938,22.81,-22.52,-4.24
399,3990,1791070275040,728,877,-0.8115,-0.3303,0.5447,20.09,-16.37,-4.78
400,4000,1791070275041,725,891,-0.7932,-0.3503,0.5066,13.48,-20.67,-4.34
401,4010,1791070275041,729,872,-0.8079,-0.3503,0.52,6.37,-21.69,-5.24
402,4020,1791070275041,731,878,-0.7974,-0.3257,0.5,-4.95,-18.29,-7.94
403,4030,1791070275041,729,880,-0.8062,-0.3127,0.5061,-9.69,-16.4,-10.43
404,4040,1791070275102,729,876,-0.7844,-0.3132,0.5149,-11.48,-14.87,-12.58
405,4050,1791070275102,726,879,-0.7864,-0.3962,0.5598,-10.31,-8.73,-11.89
406,4060,1791070275102,729,881,-0.7844,-0.4185,0.5542,-5.39,5.16,-8.24
407,4070,1791070275102,732,884,-0.78,-0.427,0.4937,-5.63,15.66,-3.57
408,4080,1791070275161,729,877,-0.781,-0.4104,0.4458,-6.56,19.31,1.33
409,4090,1791070275161,728,878,-0.7717,-0.3828,0.4104,-8.67,14.43,4.38
410,4100,1791070275161,723,880,-0.7837,-0.3433,0.4282,-10.67,5.04,6.06
411,4110,1791070275161,730,883,-0.8167,-0.5107,0.4756,-12.78,-2.44,6.46
412,4120,1791070275163,733,879,-0.7632,-0.3401,0.5454,-1.21,0.2,10.61
413,4130,1791070275163,731,884,-0.7498,-0.3379,0.5444,-10.6,5.92,8.53
414,4140,1791070275163,731,877,-0.7849,-0.3853,0.5029,-10.84,15.82,7.98
415,4150,1791070275163,730,882,-0.8145,-0.3525,0.4707,-6.7,14.89,8.17
416,4160,1791070275222,729,877,-0.802,-0.3667,0.4636,-4.35,3.11,7.39
417,4170,1791070275222,727,877,-0.7903,-0.3457,0.4756,-0.76,-5.62,8.0
418,4180,1791070275222,726,881,-0.7922,-0.365,0.5308,-0.92,-11.31,8.29
419,4190,1791070275222,729,881,-0.7649,-0.3525,0.5813,-1.97,-7.56,9.4
420,4200,1791070275281,732,876,-0.7708,-0.2861,0.5247,-4.53,3.42,9.54
421,4210,1791070275281,728,875,-0.7866,-0.2854,0.4912,-6.55,4.79,7.13
422,4220,1791070275281,724,877,-0.7988,-0.291,0.5085,-7.25,-2.24,4.5
423,4230,1791070275281,730,877,-0.7808,-0.3259,0.5078,-7.76,-5.02,1.74
424,4240,1791070275282,728,878,-0.7859,-0.3464,0.4915,-5.13,-2.31,0.66
425,4250,1791070275282,730,876,-0.7966,-0.3613,0.4661,-5.22,-1.3,1.3
426,4260,1791070275282,727,882,-0.7988,-0.3501,0.4783,-2.52,-2.24,2.56
427,4270,1791070275282,728,876,-0.8162,-0.3701,0.5056,-2.49,-0.52,3.65
428,4280,1791070275342,725,878,-0.8352,-0.4155,0.4834,-2.67,0.23,5.77
429,4290,1791070275342,731,881,-0.8354,-0.4102,0.4456,-1.15,-3.11,9.21
430,4300,1791070275342,724,887,-0.8162,-0.4019,0.4385,-1.92,-10.79,12.5
431,4310,1791070275342,728,881,-0.8281,-0.3772,0.4534,-2.9,-18.63,14.75
432,4320,1791070275402,726,879,-0.7969,-0.3262,0.4875,-3.21,-22.93,15.18
433,4330,1791070275402,734,878,-0.7949,-0.2358,0.5967,-2.58,-22.53,12.95
434,4340,1791070275402,731,883,-0.7695,-0.2417,0.6455,-7.76,-6.84,7.51
435,4350,1791070275402,729,880,-0.8164,-0.2878,0.5659,-0.81,2.72,4.96
436,4360,1791070275402,730,878,-0.7722,-0.3054,0.5557,2.99,9.24,1.53
437,4370,1791070275402,727,885,-0.7854,-0.3064,0.4287,3.47,14.81,0.78
438,4380,1791070275402,729,882,-0.8147,-0.3696,0.3364,4.17,3.21,1.33
439,4390,1791070275402,727,882,-0.7952,-0.4421,0.3662,2.21,-18.76,5.86
440,4400,1791070275461,730,882,-0.8347,-0.4763,0.4609,2.53,-32.85,14.37
441,4410,1791070275461,730,884,-0.8245,-0.4062,0.5327,5.3,-38.93,22.79
442,4420,1791070275461,726,883,-0.8101,-0.3235,0.6926,-0.47,-35.25,24.44
443,4430,1791070275461,727,877,-0.7578,-0.2483,0.772,-6.61,-16.03,21.59
444,4440,1791070275521,726,883,-0.7625,-0.2021,0.7185,-4.92,16.11,15.74
445,4450,1791070275521,729,883,-0.8088,-0.2224,0.5374,-0.44,35.85,7.02
446,4460,1791070275521,726,884,-0.7952,-0.2209,0.4905,-0.44,30.64,2.44
447,4470,1791070275521,733,882,-0.769,-0.2292,0.5032,-0.5,21.8,-2.63
448,4480,1791070275522,728,885,-0.7561,-0.2725,0.4966,-7.13,20.99,-11.5
449,4490,1791070275522,727,886,-0.812,-0.4507,0.5083,-11.56,26.27,-11.73
450,4500,1791070275522,734,890,-0.7395,-0.4121,0.5015,-10.89,31.44,-7.1
451,4510,1791070275522,730,888,-0.73,-0.3687,0.427,-15.4,44.15,-2.34
452,4520,1791070275581,730,895,-0.8354,-0.3833,0.3005,-18.61,47.24,0.46
453,4530,1791070275581,732,910,-0.8701,-0.3582,0.2427,-17.51,20.02,1.5
454,4540,1791070275581,735,954,-0.8386,-0.3284,0.4329,-19.92,-12.05,0.72
455,4550,1791070275581,740,1024,-0.8069,-0.2974,0.582,-21.45,-16.35,-0.93
456,4560,1791070275641,743,1104,-0.8347,-0.3108,0.5789,-21.02,-0.38,-3.62
457,4570,1791070275641,748,1229,-0.845,-0.3027,0.498,-17.04,9.88,-5.1
458,4580,1791070275641,755,1344,-0.8604,-0.3115,0.4553,-10.37,7.97,-6.67
459,4590,1791070275641,763,1449,-1.0024,-0.436,0.3215,-3.44,-2.34,-6.58
460,4600,1791070275642,767,1539,-0.7864,-0.4187,0.6277,14.2,-64.78,-0.43
461,4610,1791070275642,776,1638,-0.7561,-0.3318,0.613,13.47,-47.02,0.47
462,4620,1791070275642,802,1832,-0.7705,-0.3198,0.5093,11.05,-21.07,1.6
463,4630,1791070275642,836,2051,-0.7329,-0.2837,0.5154,1.6,-9.02,1.4
464,4640,1791070275701,880,2261,-0.6714,-0.2939,0.5747,-14.49,0.73,-2.14
465,4650,1791070275701,948,2475,-0.9402,-0.2087,0.2361,-0.67,-30.98,2.27
466,4660,1791070275701,1039,2754,-0.6218,-0.3335,0.77,-8.43,-53.65,-2.99
467,4670,1791070275701,1213,3265,-0.7668,-0.2908,0.5625,-8.96,-3.6,-6.03
468,4680,1791070275761,1383,3813,-0.8181,-0.283,0.3782,0.52,-0.47,-5.85
469,4690,1791070275761,1464,4155,-0.7849,-0.3354,0.5054,-2.82,-18.24,-6.53
470,4700,1791070275761,1518,4472,-0.7317,-0.3232,0.5691,-3.6,-16.0,-6.08
471,4710,1791070275761,1580,4809,-0.7554,-0.3098,0.4805,3.47,-4.43,-4.67
472,4720,1791070275762,1695,5147,-0.7729,-0.3203,0.4329,5.69,-6.81,-2.58
473,4730,1791070275762,1864,5505,-0.7544,-0.3047,0.449,4.85,-13.47,-1.44
474,4740,1791070275762,2143,5957,-0.7439,-0.3052,0.501,0.34,-15.62,-0.84
475,4750,1791070275762,2560,6598,-0.7708,-0.3074,0.541,-4.52,-14.14,-0.35
476,4760,1791070275821,3054,7249,-0.7305,-0.3154,0.5508,-7.68,-4.6,-0.4
477,4770,1791070275821,3449,7597,-0.709,-0.3462,0.5459,-13.04,14.37,-1.05
478,4780,1791070275821,3607,7442,-0.8486,-0.3677,0.3435,-15.28,17.63,-0.46
479,4790,1791070275821,3648,7084,-0.7783,-0.3562,0.5667,-10.09,-9.76,1.97
480,4800,1791070275880,3833,7044,-0.7439,-0.324,0.6155,-10.06,-1.04,2.79
481,4810,1791070275880,4012,7175,-0.7825,-0.3137,0.5156,-8.37,11.45,1.31
482,4820,1791070275880,3904,6972,-0.7996,-0.3113,0.4622,-3.59,5.16,2.2
483,4830,1791070275880,3737,6581,-0.7537,-0.3975,0.605,6.43,-1.22,3.24
484,4840,1791070275882,3846,6362,-0.7961,-0.3755,0.4209,15.3,6.89,6.08
485,4850,1791070275882,4003,6136,-0.7776,-0.3418,0.519,13.19,-0.29,6.87
486,4860,1791070275882,4029,5744,-0.7529,-0.29,0.4814,9.59,2.35,4.99
487,4870,1791070275882,3855,5220,-0.7949,-0.3403,0.4343,0.63,2.06,0.41
488,4880,1791070275941,3527,4611,-0.7842,-0.3965,0.447,-5.53,-5.77,-0.34
489,4890,1791070275941,3241,4108,-0.7749,-0.405,0.4827,-9.24,-8.31,1.07
490,4900,1791070275941,3073,3763,-0.7937,-0.4175,0.6682,-9.76,-2.21,3.45
491,4910,1791070275941,3002,3535,-0.7251,-0.3096,0.5801,-3.68,16.03,3.22
492,4920,1791070276001,2953,3383,-0.7957,-0.2651,0.375,-4.08,23.25,-0.2
493,4930,1791070276001,2949,3311,-0.8411,-0.3218,0.4285,0.5,5.8,-2.27
494,4940,1791070276001,3080,3421,-0.8174,-0.3384,0.4727,7.33,-10.6,-1.21
495,4950,1791070276001,3316,3662,-0.7866,-0.3486,0.4626,8.47,-17.85,0.2
496,4960,1791070276060,3585,3923,-0.8062,-0.3728,0.4377,5.11,-22.0,1.02
497,4970,1791070276060,3814,4148,-0.7991,-0.3677,0.5068,-1.02,-28.66,2.92
498,4980,1791070276060,3985,4320,-0.7812,-0.3799,0.5615,-9.77,-24.72,2.93
499,4990,1791070276060,4085,4430,-0.7705,-0.3862,0.5688,-15.27,-15.4,3.15
500,5000,1791070276061,4092,4457,-0.7871,-0.3491,0.4365,-18.92,-4.06,2.06
501,5010,1791070276061,4062,4433,-0.7732,-0.3245,0.5208,-19.02,-7.8,0.6
502,5020,1791070276061,4169,4523,-0.7595,-0.3284,0.5249,-12.78,-2.06,0.5
503,5030,1791070276061,4476,4844,-0.8091,-0.3701,0.457,-5.4,2.05,1.54
504,5040,1791070276063,4861,5305,-0.7998,-0.3877,0.4851,4.05,-7.01,4.21
505,5050,1791070276063,5285,5808,-0.7871,-0.3481,0.5488,11.62,-10.03,7.11
506,5060,1791070276063,5663,6209,-0.7754,-0.3022,0.582,15.11,-6.5,7.89
507,5070,1791070276063,5856,6397,-0.8074,-0.2898,0.501,12.73,-4.78,6.9
508,5080,1791070276121,5947,6428,-0.8018,-0.2671,0.5317,9.39,-12.08,5.19
509,5090,1791070276121,6165,6578,-0.7646,-0.2815,0.6262,5.85,-13.07,2.96
510,5100,1791070276121,6575,6931,-0.7881,-0.2751,0.5745,3.6,-6.78,0.64
511,5110,1791070276121,6906,7249,-0.7898,-0.3125,0.5178,-1.8,-6.15,-1.63
512,5120,1791070276182,7129,7427,-0.7795,-0.3452,0.5195,-5.8,-6.08,-3.13
513,5130,1791070276182,7437,7666,-0.7903,-0.3438,0.5154,-5.83,-4.53,-2.93
514,5140,1791070276182,7934,8098,-0.7915,-0.3787,0.5713,-3.4,-10.52,-1.82
515,5150,1791070276182,8632,8793,-0.7793,-0.3818,0.5469,0.2,-3.74,-0.06
516,5160,1791070276241,9390,9601,-0.7681,-0.3145,0.4993,3.97,0.56,1.3
517,5170,1791070276241,9972,10255,-0.762,-0.3022,0.5081,4.72,-1.08,0.7
518,5180,1791070276241,10590,10900,-0.7581,-0.2947,0.5051,6.11,-0.21,0.41
519,5190,1791070276241,11358,11714,-0.7896,-0.2839,0.4829,7.28,-3.18,0.15
520,5200,1791070276242,12150,12610,-0.7588,-0.2825,0.5364,3.74,-8.9,-3.34
521,5210,1791070276242,12688,13249,-0.7529,-0.3054,0.5469,0.23,-10.5,-7.56
522,5220,1791070276242,12716,13282,-0.7722,-0.3762,0.5571,-2.4,-9.18,-8.76
523,5230,1791070276242,12668,13129,-0.7615,-0.4194,0.5142,-4.34,-5.95,-6.58
524,5240,1791070276301,13060,13414,-0.7595,-0.4214,0.5071,-5.6,-3.82,-2.55
525,5250,1791070276301,14223,14531,-0.7478,-0.3242,0.5188,-2.37,-1.73,0.35
526,5260,1791070276301,15864,16266,-0.761,-0.3035,0.5376,0.09,-2.66,0.41
527,5270,1791070276301,17822,18386,-0.7686,-0.324,0.5547,2.84,-3.42,-0.2
528,5280,1791070276361,20254,21030,-0.7522,-0.3145,0.5571,5.97,-0.6,0.12
529,5290,1791070276361,22899,24025,-0.7717,-0.3169,0.5022,8.63,3.63,0.06
530,5300,1791070276361,25315,26872,-0.7676,-0.321,0.4954,9.19,1.22,-0.93
531,5310,1791070276361,26993,28978,-0.7593,-0.3396,0.5293,5.02,-1.69,-2.85
532,5320,1791070276362,27197,29370,-0.7708,-0.3743,0.5073,0.41,-1.56,-3.1
533,5330,1791070276362,26430,28454,-0.7795,-0.4048,0.4871,-1.85,-3.8,-1.53
534,5340,1791070276362,25869,27673,-0.7686,-0.428,0.5049,-4.69,-5.27,0.96
535,5350,1791070276362,26289,27965,-0.7527,-0.4001,0.5269,-6.03,-4.34,3.36
536,5360,1791070276421,27702,29478,-0.7366,-0.3386,0.5063,-5.8,0.56,4.4
537,5370,1791070276421,29894,32016,-0.7803,-0.3315,0.5327,-5.21,0.11,3.51
538,5380,1791070276421,34672,37445,-0.7566,-0.2949,0.5884,-3.86,-0.76,2.23
539,5390,1791070276421,44210,48475,-0.7632,-0.2988,0.5911,0.89,3.21,0.78
540,5400,1791070276481,58454,65696,-0.7827,-0.311,0.5471,4.73,7.05,0.29
541,5410,1791070276481,74043,84859,-0.5991,-0.3899,0.9814,7.28,11.19,0.14
542,5420,1791070276481,84573,92952,-0.7795,-0.3181,0.502,9.34,46.49,1.08
543,5430,1791070276481,86671,89905,-0.7891,-0.3103,0.4858,5.95,37.36,0.32
544,5440,1791070276482,88587,90509,-0.7976,-0.3247,0.502,3.71,26.89,0.09
545,5450,1791070276482,91238,92572,-0.79,-0.3333,0.4944,1.98,19.24,-0.11
546,5460,1791070276482,92690,93798,-0.7993,-0.3538,0.4526,0.34,12.85,0.03
547,5470,1791070276482,93479,94358,-0.7983,-0.363,0.4851,-0.84,8.47,0.12
548,5480,1791070276541,93998,94682,-0.7681,-0.3726,0.5508,-3.01,9.05,0.15
549,5490,1791070276541,94522,94792,-0.7742,-0.356,0.6118,-5.1,22.89,-0.95
550,5500,1791070276541,95541,94679,-0.7751,-0.3513,0.5347,-5.16,39.53,-2.15
551,5510,1791070276541,97146,95474,-0.7751,-0.3386,0.5012,-2.27,46.05,-1.45
552,5520,1791070276601,98445,96256,-0.8154,-0.3296,0.4451,2.03,44.99,-0.08
553,5530,1791070276601,99484,96796,-0.8267,-0.3225,0.4158,3.15,33.4,0.81
554,5540,1791070276601,100445,97180,-0.8171,-0.2913,0.4697,4.76,17.95,0.61
555,5550,1791070276601,101290,97516,-0.7939,-0.2793,0.5188,3.74,9.94,-0.17
556,5560,1791070276602,102087,97896,-0.8159,-0.3159,0.4614,0.69,13.25,-2.55
557,5570,1791070276602,102843,98223,-0.8323,-0.3496,0.4192,-0.38,11.86,-3.18
558,5580,1791070276602,103619,98416,-0.8242,-0.3506,0.3762,-0.64,0.9,-1.39
559,5590,1791070276602,104177,98739,-0.7903,-0.334,0.4417,-1.83,-10.63,-0.26
560,5600,1791070276660,104672,99013,-0.7356,-0.3088,0.6216,-1.02,-4.9,-0.37
561,5610,1791070276660,105176,99280,-0.7258,-0.3096,0.604,-1.47,31.5,-3.21
562,5620,1791070276660,105900,99667,-0.7798,-0.3574,0.4106,-0.32,53.4,-3.45
563,5630,1791070276660,106590,100039,-0.8013,-0.3455,0.3909,3.21,52.34,-0.47
564,5640,1791070276721,107213,100348,-0.8262,-0.3267,0.3516,3.57,41.11,0.7
565,5650,1791070276721,107677,100575,-0.8208,-0.3149,0.4011,-1.74,27.47,-0.03
566,5660,1791070276721,108040,100719,-0.7549,-0.3254,0.3816,-7.91,20.5,-4.32
567,5670,1791070276721,108331,100829,-0.8069,-0.3904,0.3896,-11.66,18.06,-6.58
568,5680,1791070276722,108589,100926,-0.7869,-0.3682,0.3303,-12.09,15.42,-5.05
569,5690,1791070276722,108793,100998,-0.8503,-0.3477,0.3738,-9.94,12.49,-3.68
570,5700,1791070276722,108962,101030,-0.875,-0.3176,0.4019,-3.21,3.83,-0.46
571,5710,1791070276722,109102,101051,-0.9092,-0.3206,0.4277,2.29,-3.13,1.27
572,5720,1791070276781,109211,101083,-0.842,-0.3118,0.4619,6.5,-10.26,1.91
573,5730,1791070276781,109301,101095,-0.7544,-0.3411,0.458,9.59,-1.98,2.08
574,5740,1791070276781,109386,101101,-0.7654,-0.3076,0.4192,7.56,14.02,-1.45
575,5750,1791070276781,109516,101118,-0.8618,-0.3379,0.3513,1.98,20.56,-6.18
576,5760,1791070276841,109662,101149,-0.8384,-0.3977,0.3594,0.06,15.05,-5.6
577,5770,1791070276841,109786,101161,-0.8569,-0.3745,0.375,1.02,8.87,-1.92
578,5780,1791070276841,109899,101175,-0.823,-0.3501,0.3696,2.09,4.24,1.05
579,5790,1791070276841,110016,101202,-0.8589,-0.3181,0.3726,5.68,-1.73,1.82
580,5800,1791070276842,110092,101230,-0.8645,-0.3218,0.3948,8.24,-10.0,0.26
581,5810,1791070276842,110162,101248,-0.821,-0.3123,0.53,9.82,-12.99,-1.57
582,5820,1791070276842,110187,101218,-0.8435,-0.2996,0.5391,16.61,-11.97,-1.65
583,5830,1791070276842,110252,101191,-0.8213,-0.375,0.4277,16.67,-2.66,-2.18
584,5840,1791070276901,110351,101220,-0.824,-0.3906,0.3821,19.5,-6.17,-1.4
585,5850,1791070276901,110465,101246,-0.8086,-0.3691,0.4053,23.8,-14.6,1.5
586,5860,1791070276901,110560,101260,-0.8093,-0.353,0.4282,24.32,-22.29,2.76
587,5870,1791070276901,110656,101280,-0.79,-0.3342,0.4846,22.56,-22.63,1.62
588,5880,1791070276961,110751,101292,-0.7861,-0.3542,0.4199,21.01,-17.53,-0.79
589,5890,1791070276961,110833,101299,-0.7998,-0.3611,0.3818,19.85,-19.92,-1.4
590,5900,1791070276961,110934,101313,-0.8032,-0.3372,0.4146,17.48,-26.44,-0.9
591,5910,1791070276961,111023,101328,-0.8037,-0.3213,0.4565,12.53,-32.93,-0.99
592,5920,1791070276962,111086,101330,-0.7866,-0.3186,0.4993,9.94,-36.66,-2.96
593,5930,1791070276962,111134,101326,-0.7646,-0.3118,0.5569,9.4,-26.73,-6.46
594,5940,1791070276962,111147,101317,-0.803,-0.3188,0.5645,7.45,-12.29,-8.81
595,5950,1791070276962,111139,101289,-0.8311,-0.311,0.5237,1.4,-7.05,-13.36
596,5960,1791070277021,111106,101251,-0.8313,-0.3362,0.4934,-5.02,-9.69,-17.16
597,5970,1791070277021,111022,101214,-0.8379,-0.3542,0.4739,-8.52,-17.82,-18.63
598,5980,1791070277021,110944,101194,-0.8354,-0.3562,0.4524,-10.63,-25.59,-18.66
599,5990,1791070277021,110862,101164,-0.8198,-0.3669,0.4282,-12.15,-37.69,-17.71
600,6000,1791070277081,110783,101137,-0.8103,-0.3689,0.4409,-11.91,-50.75,-16.75
601,6010,1791070277081,110708,101121,-0.7654,-0.3608,0.4963,-12.84,-56.96,-14.43
602,6020,1791070277081,110634,101090,-0.7642,-0.3574,0.5496,-9.59,-52.64,-12.34
603,6030,1791070277081,110568,101066,-0.7324,-0.3481,0.6975,-7.59,-41.76,-13.05
604,6040,1791070277082,110508,101054,-0.7029,-0.3467,0.7002,-10.95,-10.6,-15.21
605,6050,1791070277082,110470,101038,-0.7563,-0.3933,0.5154,-10.84,11.44,-14.58
606,6060,1791070277082,110498,101016,-0.8135,-0.4387,0.4441,-6.64,6.5,-13.04
607,6070,1791070277082,110541,101029,-0.8022,-0.3845,0.4956,-4.79,-3.94,-9.25
608,6080,1791070277141,110596,101038,-0.8052,-0.3521,0.5032,-6.76,-7.8,-12.52
609,6090,1791070277141,110637,101060,-0.8066,-0.3503,0.4875,-10.84,-10.56,-18.32
610,6100,1791070277141,110709,101098,-0.8032,-0.3479,0.4763,-12.02,-17.92,-19.34
611,6110,1791070277141,110790,101139,-0.7639,-0.3469,0.5356,-12.38,-27.76,-17.34
612,6120,1791070277201,110872,101160,-0.7708,-0.3894,0.5569,-15.71,-27.51,-16.82
613,6130,1791070277201,110903,101163,-0.7129,-0.4138,0.5259,-19.66,-26.03,-14.43
614,6140,1791070277201,110938,101182,-0.5547,-0.4897,0.4089,-27.59,-35.89,4.99
615,6150,1791070277201,110929,101187,-0.9414,-0.2483,0.5176,-34.06,-52.82,24.78
616,6160,1791070277202,110891,101146,-0.8567,-0.439,0.5098,-24.72,-49.42,-5.74
617,6170,1791070277202,110973,101190,-0.718,-0.3928,0.6079,-15.73,-56.05,-10.98
618,6180,1791070277202,111015,101241,-0.719,-0.3596,0.6172,-12.93,-50.02,-6.81
619,6190,1791070277202,111058,101258,-0.6721,-0.4231,0.5933,-9.27,-35.88,-6.84
620,6200,1791070277262,111093,101270,-0.6963,-0.3931,0.5283,-5.51,-19.6,-5.92
621,6210,1791070277262,111097,101265,-0.7056,-0.3955,0.5984,-6.5,-7.37,-6.5
622,6220,1791070277262,111089,101262,-0.7476,-0.3816,0.5769,-8.0,-1.65,-7.34
623,6230,1791070277262,111081,101240,-0.729,-0.376,0.564,-10.56,-1.94,-7.39
624,6240,1791070277321,111075,101226,-0.7402,-0.3838,0.5586,-10.81,-0.64,-7.42
625,6250,1791070277321,111062,101226,-0.7554,-0.3594,0.5762,-14.53,2.37,-10.47
626,6260,1791070277321,111049,101208,-0.771,-0.3926,0.5906,-21.89,-0.32,-13.88
627,6270,1791070277321,111050,101215,-0.4792,-0.6658,0.5154,-35.37,-10.18,-16.64
628,6280,1791070277322,111037,101236,-0.4917,-0.5613,0.4495,-53.04,-38.24,31.13
629,6290,1791070277322,110848,101163,-0.7043,-0.5015,0.3501,-27.24,-41.66,57.79
630,6300,1791070277322,110639,101056,-0.863,-0.2971,0.6819,26.21,-23.57,45.04
631,6310,1791070277322,110593,101041,-0.8755,-0.2825,0.7939,21.21,-10.02,19.02
632,6320,1791070277382,110602,101052,-0.7454,-0.3496,0.6716,-12.46,-1.15,2.41
633,6330,1791070277382,110569,101031,-0.6965,-0.4104,0.5903,-23.5,8.38,0.64
634,6340,1791070277382,110523,101001,-0.7,-0.4509,0.5144,-19.05,15.37,4.35
635,6350,1791070277382,110499,100976,-0.7441,-0.4514,0.4355,-4.5,18.63,5.5
636,6360,1791070277442,110481,100969,-0.7256,-0.4189,0.4597,10.41,12.79,4.64
637,6370,1791070277442,110506,100979,-0.7048,-0.4028,0.5315,14.61,4.08,5.91
638,6380,1791070277442,110550,100991,-0.7725,-0.2817,0.7046,-5.59,2.18,2.14
639,6390,1791070277442,110587,101014,-0.7153,-0.4128,0.572,-16.52,13.54,-3.39
640,6400,1791070277442,110658,101050,-0.7231,-0.3755,0.5579,-16.47,15.19,-3.27
641,6410,1791070277442,110719,101090,-0.7576,-0.4109,0.4822,-21.13,10.52,-5.15
642,6420,1791070277442,110818,101150,-0.7383,-0.4116,0.5063,-26.69,-4.27,-1.13
643,6430,1791070277442,110865,101177,-0.7156,-0.4131,0.5032,-32.87,-14.98,2.37
644,6440,1791070277501,110821,101146,-0.7043,-0.4451,0.5149,-29.85,-14.47,5.24
645,6450,1791070277501,110672,101046,-0.7034,-0.447,0.5049,-20.31,-11.05,7.88
646,6460,1791070277501,110472,100902,-0.6875,-0.4668,0.5051,-7.1,-6.41,10.18
647,6470,1791070277501,110302,100769,-0.6819,-0.4453,0.4995,9.65,2.85,12.06
648,6480,1791070277560,110169,100686,-0.6926,-0.4172,0.5322,25.97,19.91,11.36
649,6490,1791070277560,110175,100705,-0.71,-0.4099,0.5308,32.82,30.29,10.87
650,6500,1791070277560,110338,100839,-0.7173,-0.4053,0.5676,27.6,29.18,9.27
651,6510,1791070277560,110498,100960,-0.7415,-0.3691,0.5815,14.27,24.43,12.44
652,6520,1791070277623,110567,101002,-0.8005,-0.3894,0.551,-0.49,17.5,10.2
653,6530,1791070277623,110567,101006,-0.7744,-0.4048,0.5608,-13.48,5.21,7.16
654,6540,1791070277623,110520,100963,-0.7395,-0.4043,0.5613,-24.66,4.67,3.94
655,6550,1791070277623,110419,100883,-0.7302,-0.4314,0.5225,-31.28,9.02,1.25
656,6560,1791070277623,110303,100780,-0.7222,-0.4128,0.5283,-33.28,14.0,-0.06
657,6570,1791070277623,110093,100626,-0.708,-0.4058,0.5344,-27.85,21.28,0.0
658,6580,1791070277623,109787,100409,-0.7278,-0.395,0.5547,-19.82,33.21,-1.44
659,6590,1791070277623,109477,100161,-0.6519,-0.4358,0.4731,-12.34,43.6,-0.99
660,6600,1791070277623,109187,99935,-0.6521,-0.5002,0.5078,1.21,50.82,13.88
661,6610,1791070277623,109083,99850,-0.8484,-0.4512,0.5247,12.93,72.02,23.77
662,6620,1791070277623,109145,99928,-0.8765,-0.4604,0.3271,13.73,65.44,17.69
663,6630,1791070277623,109285,100066,-0.8767,-0.3997,0.3254,4.12,34.5,13.04
664,6640,1791070277682,109289,100071,-0.8894,-0.3718,0.4458,-2.95,13.34,7.1
665,6650,1791070277682,109215,99997,-0.7546,-0.4324,0.5061,3.22,7.97,2.47
666,6660,1791070277682,109218,99972,-0.7644,-0.427,0.4919,19.86,20.5,4.82
667,6670,1791070277682,109289,100019,-0.8457,-0.3945,0.4526,21.11,18.7,5.3
668,6680,1791070277742,109457,100143,-0.8477,-0.3887,0.4126,10.92,-3.04,5.97
669,6690,1791070277742,109678,100286,-0.8359,-0.3347,0.4631,-5.36,-27.6,7.04
670,6700,1791070277742,109869,100395,-0.7615,-0.3369,0.5195,-30.69,-38.89,3.27
671,6710,1791070277742,109936,100404,-0.7139,-0.3542,0.5581,-38.46,-30.63,1.04
672,6720,1791070277802,110014,100413,-0.7214,-0.4797,0.5442,-32.26,-9.18,1.57
673,6730,1791070277802,110258,100513,-0.7622,-0.4729,0.4141,-18.63,2.44,4.21
674,6740,1791070277802,110650,100710,-0.7581,-0.4487,0.3699,-6.41,3.88,10.44
675,6750,1791070277802,110959,100853,-0.7983,-0.4202,0.4021,-0.58,-0.44,14.58
676,6760,1791070277802,111183,100939,-0.7922,-0.3716,0.4758,-4.38,-8.7,14.18
677,6770,1791070277802,111321,100973,-0.7698,-0.3801,0.5166,-11.13,-13.79,11.15
678,6780,1791070277802,111395,100972,-0.7478,-0.376,0.533,-7.51,-2.2,7.76
679,6790,1791070277802,111486,100964,-0.7747,-0.3838,0.4651,-5.54,10.55,5.21
680,6800,1791070277861,111633,101017,-0.7659,-0.3799,0.4133,-7.37,18.09,1.82
681,6810,1791070277861,111798,101092,-0.8108,-0.3674,0.4131,-12.93,16.27,0.0
682,6820,1791070277861,111948,101170,-0.8206,-0.3821,0.4583,-21.68,1.98,0.12
683,6830,1791070277861,112052,101217,-0.7981,-0.3596,0.5374,-29.24,-11.1,-0.06
684,6840,1791070277921,112095,101224,-0.7437,-0.311,0.52,-34.67,-17.02,-0.24
685,6850,1791070277921,112120,101231,-0.7175,-0.3481,0.4866,-36.72,-16.37,-1.65
686,6860,1791070277921,112235,101287,-0.7349,-0.3774,0.4614,-30.5,-8.2,-3.91
687,6870,1791070277921,112405,101392,-0.7725,-0.3696,0.4485,-23.95,-3.76,-4.41
688,6880,1791070277922,112568,101494,-0.7788,-0.3572,0.4248,-15.71,-8.98,-1.74
689,6890,1791070277922,112664,101541,-0.7727,-0.3796,0.4175,-7.48,-14.63,2.58
690,6900,1791070277922,112694,101536,-0.7644,-0.4551,0.5015,-5.37,-10.82,1.37
691,6910,1791070277922,112682,101508,-0.7371,-0.4641,0.522,7.86,17.63,-3.11
692,6920,1791070277981,112706,101477,-0.791,-0.4897,0.4653,21.31,44.09,-4.75
693,6930,1791070277981,112791,101512,-0.8767,-0.4622,0.4258,21.47,43.51,-5.53
694,6940,1791070277981,112907,101558,-0.8364,-0.4746,0.3987,9.95,25.16,-3.51
695,6950,1791070277981,113015,101609,-0.8218,-0.4431,0.4036,-2.21,3.63,-0.95
696,6960,1791070278042,113094,101660,-0.7517,-0.4463,0.4116,-11.27,-11.74,2.64
697,6970,1791070278042,113159,101703,-0.7366,-0.4402,0.3906,-19.11,-8.73,1.68
698,6980,1791070278042,113220,101743,-0.6921,-0.4082,0.4395,-23.82,12.24,-1.73
699,6990,1791070278042,113251,101782,-0.7188,-0.4587,0.377,-13.37,42.52,-2.55
700,7000,1791070278043,113297,101832,-0.7698,-0.4463,0.3438,1.66,60.76,-1.54
701,7010,1791070278043,113361,101875,-0.7705,-0.4644,0.335,14.5,68.43,0.47
702,7020,1791070278043,113427,101902,-0.8396,-0.4465,0.4192,36.76,59.82,2.85
703,7030,1791070278043,113476,101889,-0.7468,-0.4492,0.5889,48.14,61.18,9.3
704,7040,1791070278101,113532,101864,-0.8633,-0.376,0.4412,59.24,68.79,11.63
705,7050,1791070278101,113582,101828,-0.9236,-0.4106,0.3879,49.44,47.77,15.98
706,7060,1791070278101,113650,101799,-0.8447,-0.3921,0.3428,41.31,25.33,16.9
707,7070,1791070278101,113680,101766,-0.7759,-0.3877,0.3738,45.69,11.01,19.36
708,7080,1791070278162,113710,101755,-0.8225,-0.3921,0.4409,40.31,4.46,21.16
709,7090,1791070278162,113745,101761,-0.8367,-0.3521,0.4775,26.7,8.75,16.61
710,7100,1791070278162,113813,101785,-0.8438,-0.344,0.4705,9.54,13.16,9.39
711,7110,1791070278162,113896,101812,-0.8481,-0.3621,0.3594,-2.67,12.11,3.63
712,7120,1791070278163,113968,101799,-0.8474,-0.3635,0.3186,-8.5,-2.08,5.73
713,7130,1791070278163,114029,101789,-0.825,-0.325,0.3818,-14.79,-21.57,9.28
714,7140,1791070278163,114057,101765,-0.7659,-0.2864,0.4185,-11.25,-28.81,12.55
715,7150,1791070278163,114084,101731,-0.8142,-0.3311,0.4983,1.73,-24.78,18.02
716,7160,1791070278222,114107,101715,-0.8464,-0.3657,0.4617,20.21,-11.34,19.91
717,7170,1791070278222,114143,101685,-0.8521,-0.4062,0.4031,35.36,-0.64,20.81
718,7180,1791070278222,114216,101680,-0.8347,-0.3792,0.3513,41.13,-1.37,22.14
719,7190,1791070278222,114285,101683,-0.7766,-0.3757,0.3132,44.05,-4.27,23.01
720,7200,1791070278282,114342,101695,-0.8059,-0.4045,0.3982,47.34,-5.05,22.89
721,7210,1791070278282,114329,101699,-0.8328,-0.3801,0.4758,51.68,7.39,18.26
722,7220,1791070278282,114266,101684,-0.8367,-0.3354,0.4041,52.38,26.11,13.13
723,7230,1791070278282,114182,101670,-0.8193,-0.3308,0.3406,46.75,36.81,9.28
724,7240,1791070278282,114117,101678,-0.8313,-0.3464,0.3354,41.92,30.67,11.54
725,7250,1791070278282,114070,101685,-0.884,-0.2668,0.3809,41.89,19.45,16.11
726,7260,1791070278282,114049,101680,-0.9072,-0.2817,0.4524,25.89,5.53,15.85
727,7270,1791070278282,114059,101695,-0.8462,-0.2483,0.4692,11.34,-15.24,14.92
728,7280,1791070278341,114066,101697,-0.8584,-0.3145,0.4753,14.85,-18.27,13.5
729,7290,1791070278341,114053,101683,-0.8213,-0.3215,0.4609,14.78,-16.5,11.34
730,7300,1791070278341,114049,101686,-0.8376,-0.3308,0.375,8.99,-14.32,9.05
731,7310,1791070278341,114054,101684,-0.7886,-0.238,0.3691,-2.82,-18.58,8.69
732,7320,1791070278404,114081,101695,-0.822,-0.2939,0.3489,-9.02,-23.77,4.44
733,7330,1791070278404,114114,101693,-0.8225,-0.3362,0.2886,-9.24,-22.37,-1.01
734,7340,1791070278404,114138,101694,-0.8267,-0.3188,0.3665,-12.08,-22.79,-3.4
735,7350,1791070278404,114144,101688,-0.8237,-0.2854,0.4727,-15.07,-18.96,-7.6
736,7360,1791070278462,114155,101684,-0.824,-0.3044,0.4841,-17.66,-10.79,-13.88
737,7370,1791070278462,114175,101684,-0.8713,-0.2927,0.4771,-17.07,-8.24,-17.83
738,7380,1791070278462,114183,101700,-0.8892,-0.3103,0.5046,-15.6,-17.59,-14.32
739,7390,1791070278462,114149,101684,-0.865,-0.304,0.5254,-15.6,-26.92,-5.24
740,7400,1791070278462,114109,101663,-0.833,-0.3301,0.4739,-14.0,-32.95,2.21
741,7410,1791070278462,114094,101647,-0.835,-0.3298,0.4521,-12.29,-33.95,2.64
742,7420,1791070278462,114094,101635,-0.8167,-0.3252,0.4233,-10.66,-26.23,1.83
743,7430,1791070278462,114114,101634,-0.7451,-0.3645,0.4062,-9.74,-25.57,6.63
744,7440,1791070278464,114136,101637,-0.7783,-0.3145,0.4819,-3.8,-19.45,4.81
745,7450,1791070278464,114112,101622,-0.8433,-0.2705,0.4922,-1.62,-10.81,9.4
746,7460,1791070278464,114109,101582,-0.8447,-0.2673,0.5017,3.39,0.41,11.07
747,7470,1791070278464,114103,101563,-0.8799,-0.2139,0.4714,7.36,0.35,13.02
748,7480,1791070278521,114097,101543,-0.8843,-0.2656,0.479,8.85,-4.27,19.8
749,7490,1791070278521,114081,101528,-0.8267,-0.3367,0.5376,2.55,-16.44,22.61
750,7500,1791070278521,114059,101496,-0.8718,-0.2488,0.5198,-11.95,-26.24,17.01
751,7510,1791070278521,114006,101463,-0.8271,-0.2881,0.5876,-24.96,-35.59,12.82
752,7520,1791070278581,113954,101436,-0.802,-0.3706,0.4846,-21.31,-33.15,10.98
753,7530,1791070278581,113903,101428,-0.7581,-0.4128,0.3889,-9.56,-23.42,10.75
754,7540,1791070278581,113858,101397,-0.7402,-0.3127,0.4434,9.13,-9.16,9.91
755,7550,1791070278581,113833,101384,-0.8098,-0.3049,0.498,18.67,10.9,10.17
756,7560,1791070278642,113820,101377,-0.8477,-0.2739,0.4609,22.87,35.56,3.16
757,7570,1791070278642,113827,101378,-0.8674,-0.259,0.4448,22.78,38.24,3.85
758,7580,1791070278642,113865,101381,-0.8428,-0.2258,0.5029,21.05,36.89,5.85
759,7590,1791070278642,113889,101383,-0.8821,-0.2727,0.5022,11.68,26.75,9.39
760,7600,1791070278642,113931,101388,-0.9478,-0.301,0.5225,-0.31,12.02,9.44
761,7610,1791070278642,113957,101396,-0.8794,-0.2925,0.5588,-12.05,-1.11,8.98
762,7620,1791070278642,113980,101411,-0.8469,-0.2871,0.561,-10.47,0.35,4.37
763,7630,1791070278642,114003,101408,-0.8093,-0.3462,0.4636,-2.72,2.82,3.71
764,7640,1791070278701,114021,101422,-0.7688,-0.3293,0.4246,7.31,2.11,4.11
765,7650,1791070278701,114036,101438,-0.8086,-0.3103,0.3931,10.23,3.62,2.5
766,7660,1791070278701,114076,101453,-0.8384,-0.2974,0.3994,5.91,3.97,-0.52
767,7670,1791070278701,114110,101470,-0.8435,-0.2908,0.4441,-1.77,4.7,-3.18
768,7680,1791070278762,114141,101493,-0.8594,-0.2874,0.4539,-8.35,8.63,-5.91
769,7690,1791070278762,114159,101494,-0.8682,-0.2803,0.4749,-14.4,6.61,-8.21
770,7700,1791070278762,114200,101502,-0.8572,-0.2754,0.5085,-18.17,0.98,-8.26
771,7710,1791070278762,114233,101514,-0.8306,-0.2742,0.5339,-16.02,2.2,-7.24
772,7720,1791070278762,114279,101550,-0.8313,-0.2751,0.5151,-8.6,9.88,-7.62
773,7730,1791070278762,114329,101566,-0.8279,-0.2959,0.4512,-0.85,16.15,-7.24
774,7740,1791070278762,114384,101583,-0.8308,-0.2903,0.3992,6.4,13.69,-4.38
775,7750,1791070278762,114438,101614,-0.832,-0.2922,0.3848,9.33,5.33,-1.05
776,7760,1791070278822,114487,101649,-0.8303,-0.2908,0.3928,8.46,-3.39,1.63
777,7770,1791070278822,114513,101665,-0.8308,-0.3044,0.3843,3.74,-9.8,2.79
778,7780,1791070278822,114540,101669,-0.8145,-0.3308,0.407,-1.97,-14.78,4.47
779,7790,1791070278822,114533,101666,-0.8176,-0.3086,0.4709,-5.18,-7.6,4.06
780,7800,1791070278881,114520,101661,-0.8257,-0.3059,0.4775,-6.96,-0.2,1.56
781,7810,1791070278881,114511,101652,-0.8174,-0.3,0.4895,-4.82,2.31,0.67
782,7820,1791070278881,114509,101639,-0.8413,-0.2878,0.4771,0.56,4.61,0.72
783,7830,1791070278881,114480,101621,-0.8501,-0.2874,0.4639,0.31,0.58,0.75
784,7840,1791070278882,114439,101601,-0.8318,-0.2844,0.4429,-1.48,-3.25,0.66
785,7850,1791070278882,114381,101577,-0.8364,-0.2944,0.4304,-2.69,-7.07,1.19
786,7860,1791070278882,114323,101561,-0.8374,-0.2996,0.4368,-2.98,-11.21,2.18
787,7870,1791070278882,114258,101544,-0.821,-0.2915,0.4258,-1.97,-13.37,3.25
788,7880,1791070278941,114204,101522,-0.8203,-0.3071,0.4277,-2.72,-14.02,3.79
789,7890,1791070278941,114145,101512,-0.8132,-0.3123,0.4358,-2.82,-14.26,3.95
790,7900,1791070278941,114118,101504,-0.8118,-0.3069,0.4727,-1.6,-9.8,2.99
791,7910,1791070278941,114088,101498,-0.8096,-0.3074,0.4966,-0.67,-0.43,1.42
792,7920,1791070279001,114073,101494,-0.8252,-0.2939,0.4807,1.02,9.66,-1.37
793,7930,1791070279001,114080,101498,-0.8433,-0.2986,0.4619,1.63,12.66,-2.72
794,7940,1791070279001,114101,101511,-0.8496,-0.2974,0.4395,1.47,9.24,-1.79
795,7950,1791070279001,114125,101519,-0.8477,-0.3013,0.4336,1.21,1.3,0.6
796,7960,1791070279002,114156,101525,-0.8435,-0.2961,0.4424,0.55,-6.84,3.01
797,7970,1791070279002,114163,101527,-0.8311,-0.2986,0.4695,0.08,-13.16,5.08
798,7980,1791070279002,114185,101527,-0.8152,-0.3044,0.4941,1.63,-10.99,5.1
799,7990,1791070279002,114201,101542,-0.8191,-0.303,0.4863,5.08,-1.85,3.21
800,8000,1791070279062,114225,101538,-0.8342,-0.3015,0.4602,6.98,6.35,1.48
801,8010,1791070279062,114259,101558,-0.8323,-0.2939,0.4294,7.45,8.0,1.19
802,8020,1791070279062,114309,101571,-0.8342,-0.2859,0.4299,5.92,6.0,1.19
803,8030,1791070279062,114355,101590,-0.8271,-0.2834,0.4778,2.32,6.4,0.96
804,8040,1791070279122,114381,101612,-0.8293,-0.2805,0.4438,-0.55,9.54,-0.81
805,8050,1791070279122,114404,101630,-0.8384,-0.2896,0.4307,-1.15,7.28,-1.31
806,8060,1791070279122,114450,101632,-0.8425,-0.2944,0.4233,-1.47,3.05,-0.44
807,8070,1791070279122,114471,101630,-0.8452,-0.2917,0.4424,-2.78,-1.69,0.03
808,8080,1791070279123,114492,101638,-0.8271,-0.291,0.4546,-1.74,-4.6,1.01
809,8090,1791070279123,114502,101633,-0.822,-0.301,0.4502,0.17,-6.11,2.17
810,8100,1791070279123,114512,101644,-0.8325,-0.3054,0.4543,1.01,-5.94,2.58
811,8110,1791070279123,114525,101650,-0.8372,-0.2952,0.4521,-2.24,-4.49,0.73
812,8120,1791070279182,114528,101649,-0.832,-0.2949,0.4849,-6.72,-2.63,-0.93
813,8130,1791070279182,114527,101652,-0.8318,-0.2861,0.4771,-8.09,5.86,-3.74
814,8140,1791070279182,114533,101650,-0.8398,-0.292,0.4617,-7.68,7.91,-4.12
815,8150,1791070279182,114541,101648,-0.8389,-0.2883,0.4448,-5.57,5.22,-2.18
816,8160,1791070279241,114554,101656,-0.8572,-0.2812,0.4402,-4.95,-0.43,-0.43
817,8170,1791070279241,114553,101655,-0.8435,-0.301,0.4229,-7.33,-6.81,-0.26
818,8180,1791070279241,114573,101654,-0.8259,-0.3093,0.4253,-8.15,-9.19,-0.46
819,8190,1791070279241,114584,101664,-0.8188,-0.3096,0.4517,-7.27,-7.82,-0.18
820,8200,1791070279301,114602,101666,-0.8145,-0.3132,0.4507,-4.47,-5.88,-0.5
821,8210,1791070279301,114619,101669,-0.8237,-0.3059,0.4524,-1.22,-3.4,-0.08
822,8220,1791070279301,114649,101673,-0.8296,-0.3105,0.449,1.05,-1.82,-0.24
823,8230,1791070279301,114628,101694,-0.8206,-0.3096,0.4502,1.88,-1.37,0.02
824,8240,1791070279302,114512,101707,-0.8313,-0.3037,0.4663,2.76,-0.64,0.24
825,8250,1791070279302,114524,101712,-0.8279,-0.2952,0.4983,3.65,3.44,-0.23
826,8260,1791070279302,114571,101716,-0.8271,-0.303,0.4978,3.57,11.66,-1.74
827,8270,1791070279302,114607,101729,-0.8271,-0.302,0.468,5.25,16.7,-2.75
828,8280,1791070279303,114661,101739,-0.8406,-0.2949,0.4539,6.37,17.57,-2.79
829,8290,1791070279303,114707,101761,-0.8472,-0.2925,0.4368,5.19,13.89,-1.62
830,8300,1791070279303,114747,101762,-0.8472,-0.3071,0.4202,3.05,7.15,-0.53
831,8310,1791070279303,114784,101782,-0.8391,-0.301,0.4075,1.22,-0.93,1.76
832,8320,1791070279361,114816,101785,-0.8511,-0.3013,0.4011,-2.84,-9.74,3.51
833,8330,1791070279361,114826,101792,-0.8455,-0.3035,0.4333,-6.87,-16.47,4.15
834,8340,1791070279361,114839,101789,-0.8235,-0.2939,0.4727,-8.78,-15.44,3.11
835,8350,1791070279361,114829,101794,-0.8235,-0.2996,0.4888,-6.4,-9.66,2.29
836,8360,1791070279422,114820,101789,-0.8179,-0.304,0.4753,-1.47,-4.0,1.37
837,8370,1791070279422,114823,101787,-0.8293,-0.2949,0.4509,3.22,1.95,1.1
838,8380,1791070279422,114831,101795,-0.8269,-0.2957,0.4363,4.52,3.57,1.28
839,8390,1791070279422,114848,101805,-0.8254,-0.3013,0.4175,3.18,4.18,0.98
840,8400,1791070279481,114867,101812,-0.8259,-0.3037,0.4036,1.39,1.91,1.24
841,8410,1791070279481,114881,101819,-0.8264,-0.2981,0.4065,0.44,-3.01,2.21
842,8420,1791070279481,114904,101837,-0.8411,-0.2993,0.4084,-1.37,-10.47,3.44
843,8430,1791070279481,114915,101840,-0.8333,-0.2944,0.4346,-4.9,-18.84,4.56
844,8440,1791070279482,114907,101831,-0.8271,-0.3008,0.4714,-8.23,-22.05,4.49
845,8450,1791070279482,114861,101820,-0.8206,-0.2937,0.5098,-7.89,-19.24,3.48
846,8460,1791070279482,114794,101798,-0.8167,-0.3008,0.522,-5.62,-10.69,1.65
847,8470,1791070279482,114706,101761,-0.8335,-0.2979,0.5127,-2.52,0.52,-0.37
848,8480,1791070279541,114621,101732,-0.8523,-0.2976,0.5002,-1.48,5.79,-1.56
849,8490,1791070279541,114530,101701,-0.8425,-0.3035,0.4595,-0.96,4.79,-1.16
850,8500,1791070279541,114458,101666,-0.8438,-0.2996,0.4558,0.11,0.81,0.32
851,8510,1791070279541,114395,101648,-0.8296,-0.3049,0.436,0.6,-2.44,1.16
852,8520,1791070279602,114339,101626,-0.8247,-0.304,0.4385,0.69,-2.66,1.13
853,8530,1791070279602,114283,101610,-0.8318,-0.3044,0.428,0.27,-0.5,0.87
854,8540,1791070279602,114248,101587,-0.8398,-0.3086,0.4312,-0.32,-1.39,1.13
855,8550,1791070279602,114228,101581,-0.8376,-0.3008,0.4419,-0.34,-3.6,1.97
856,8560,1791070279602,114214,101579,-0.8345,-0.3074,0.4456,0.03,-6.4,3.02
857,8570,1791070279602,114217,101574,-0.8267,-0.3047,0.4602,0.37,-7.92,3.56
858,8580,1791070279602,114231,101581,-0.8208,-0.2996,0.4758,2.85,-6.4,3.44
859,8590,1791070279602,114239,101585,-0.8169,-0.2832,0.5002,5.79,-1.24,2.15
860,8600,1791070279662,114249,101585,-0.8347,-0.2952,0.4778,7.19,3.63,0.93
861,8610,1791070279662,114266,101580,-0.8306,-0.2905,0.4766,7.21,4.52,0.6
862,8620,1791070279662,114277,101590,-0.8323,-0.302,0.4595,6.9,4.37,1.16
863,8630,1791070279662,114297,101596,-0.8323,-0.3042,0.4622,7.07,0.92,2.66
864,8640,1791070279721,114323,101599,-0.8252,-0.3118,0.4553,5.56,-2.34,4.09
865,8650,1791070279721,114341,101609,-0.8247,-0.3096,0.4668,3.77,-1.74,3.82
866,8660,1791070279721,114381,101617,-0.8164,-0.3042,0.4954,3.83,5.4,2.37
867,8670,1791070279721,114410,101620,-0.8232,-0.2925,0.4614,5.07,13.36,0.93
868,8680,1791070279722,114444,101627,-0.8303,-0.2839,0.4651,5.51,14.14,0.81
869,8690,1791070279722,114478,101636,-0.8394,-0.2747,0.469,6.38,11.63,1.51
870,8700,1791070279722,114500,101647,-0.8381,-0.2754,0.4546,7.07,7.36,1.98
871,8710,1791070279722,114518,101649,-0.8372,-0.2737,0.4543,6.87,3.98,2.4
872,8720,1791070279781,114515,101647,-0.8308,-0.2776,0.459,4.32,1.39,1.74
873,8730,1791070279781,114522,101651,-0.8101,-0.2705,0.4683,3.07,5.6,0.38
874,8740,1791070279781,114515,101655,-0.8237,-0.2749,0.4387,2.84,10.99,-1.27
875,8750,1791070279781,114517,101658,-0.8335,-0.2781,0.418,2.61,8.96,-0.81
876,8760,1791070279841,114536,101667,-0.8491,-0.2686,0.4138,0.29,1.91,0.34
877,8770,1791070279841,114549,101682,-0.8396,-0.2798,0.4351,-5.95,-7.11,1.01
878,8780,1791070279841,114561,101681,-0.8176,-0.2795,0.4578,-8.98,-7.63,0.23
879,8790,1791070279841,114565,101688,-0.8247,-0.2932,0.4565,-8.99,-2.03,-1.16
880,8800,1791070279842,114567,101692,-0.8247,-0.2869,0.4565,-6.32,0.87,-0.79
881,8810,1791070279842,114587,101706,-0.8374,-0.2864,0.4604,-1.31,3.39,-0.29
882,8820,1791070279842,114605,101699,-0.8608,-0.2852,0.4678,2.79,2.6,0.96
883,8830,1791070279842,114631,101705,-0.8516,-0.29,0.4573,4.11,-0.81,2.53
884,8840,1791070279902,114654,101719,-0.8354,-0.2886,0.4485,5.66,-3.76,3.56
885,8850,1791070279902,114688,101731,-0.8318,-0.2815,0.4353,6.61,-2.47,3.33
886,8860,1791070279902,114712,101743,-0.8398,-0.281,0.4397,5.45,-3.02,3.04
887,8870,1791070279902,114741,101754,-0.8225,-0.2812,0.4883,3.37,-1.66,2.69
888,8880,1791070279961,114766,101766,-0.8308,-0.281,0.4763,3.51,6.85,0.55
889,8890,1791070279961,114781,101767,-0.8447,-0.2915,0.4548,3.45,8.46,-0.09
890,8900,1791070279961,114807,101779,-0.8501,-0.2891,0.4436,2.99,7.57,-0.2
891,8910,1791070279961,114836,101781,-0.8577,-0.2883,0.4348,1.16,3.92,-0.37
892,8920,1791070279962,114877,101788,-0.8552,-0.2961,0.4299,-1.8,-1.11,0.02
893,8930,1791070279962,114905,101797,-0.8452,-0.29,0.4453,-4.41,-4.72,0.56
894,8940,1791070279962,114956,101812,-0.8276,-0.2908,0.48,-5.15,-2.87,-0.26
895,8950,1791070279962,114989,101828,-0.8132,-0.2925,0.4751,-1.68,6.02,-0.98
896,8960,1791070280021,115014,101836,-0.8396,-0.2891,0.4543,3.88,10.49,-0.38
897,8970,1791070280021,115032,101834,-0.8521,-0.2771,0.4426,5.97,9.63,0.32
898,8980,1791070280021,115071,101841,-0.8579,-0.2834,0.4451,4.09,4.49,1.16
899,8990,1791070280021,115087,101845,-0.8389,-0.3037,0.4258,1.51,-0.37,1.79
900,9000,1791070280081,115099,101845,-0.8069,-0.3015,0.3967,-1.4,0.29,0.79
901,9010,1791070280081,115115,101851,-0.8289,-0.3193,0.4006,-4.98,3.34,-0.75
902,9020,1791070280081,115126,101858,-0.8286,-0.3115,0.4368,-6.12,5.69,-0.05
903,9030,1791070280081,115129,101849,-0.8352,-0.2861,0.4541,-6.92,4.52,1.02
904,9040,1791070280142,115150,101838,-0.8464,-0.2913,0.4324,-8.4,3.48,0.08
905,9050,1791070280142,115160,101836,-0.8665,-0.2932,0.4219,-6.79,-2.55,2.18
906,9060,1791070280142,115138,101820,-0.8591,-0.2822,0.4448,-5.6,-9.8,3.42
907,9070,1791070280142,115094,101799,-0.8418,-0.2898,0.4504,-5.3,-14.4,3.83
908,9080,1791070280142,115023,101763,-0.8196,-0.2837,0.4736,-5.47,-11.94,2.67
909,9090,1791070280142,114938,101723,-0.8374,-0.2793,0.4761,-6.72,-4.03,0.26
910,9100,1791070280142,114853,101705,-0.8552,-0.2925,0.4524,-9.13,0.72,-1.71
911,9110,1791070280142,114785,101680,-0.8545,-0.2864,0.4397,-10.11,1.71,-2.02
912,9120,1791070280144,114746,101656,-0.8452,-0.291,0.4346,-9.3,0.06,-1.39
913,9130,1791070280144,114708,101654,-0.8386,-0.2993,0.4316,-5.5,0.14,-0.52
914,9140,1791070280144,114676,101641,-0.8379,-0.2903,0.4385,-1.45,0.55,0.47
915,9150,1791070280144,114641,101626,-0.8213,-0.2876,0.4536,1.11,2.27,0.56
916,9160,1791070280201,114617,101624,-0.8477,-0.2864,0.4224,2.21,3.86,0.9
917,9170,1791070280201,114607,101616,-0.8367,-0.2942,0.4248,2.23,0.7,1.63
918,9180,1791070280201,114601,101603,-0.8408,-0.2871,0.4316,1.95,-0.82,2.6
919,9190,1791070280201,114612,101599,-0.8521,-0.2998,0.4255,0.35,-2.14,2.79
920,9200,1791070280261,114629,101602,-0.835,-0.3,0.425,-1.13,-4.69,3.22
921,9210,1791070280261,114649,101606,-0.8313,-0.2852,0.447,-1.27,-5.76,3.62
922,9220,1791070280261,114681,101621,-0.8289,-0.2847,0.4597,-1.07,-2.7,2.78
923,9230,1791070280261,114713,101623,-0.8423,-0.2822,0.4509,-0.18,0.41,1.62
924,9240,1791070280322,114749,101638,-0.8293,-0.291,0.437,0.84,-0.06,2.14
925,9250,1791070280322,114763,101648,-0.8337,-0.2861,0.4399,2.96,-1.31,3.13
926,9260,1791070280322,114794,101656,-0.8418,-0.2852,0.4509,2.75,-2.37,2.99
927,9270,1791070280322,114826,101660,-0.8293,-0.2812,0.4534,1.94,-1.31,1.8
928,9280,1791070280322,114861,101672,-0.853,-0.2878,0.4387,0.64,0.93,1.18
929,9290,1791070280322,114896,101682,-0.8418,-0.2947,0.4626,0.31,0.67,1.19
930,9300,1791070280322,114926,101696,-0.8376,-0.2881,0.4531,2.96,4.17,1.27
931,9310,1791070280322,114949,101702,-0.8384,-0.2822,0.4487,4.75,4.46,1.73
932,9320,1791070280381,114975,101702,-0.8396,-0.2803,0.4409,5.42,4.87,1.76
933,9330,1791070280381,114983,101695,-0.8496,-0.2773,0.4377,5.92,2.49,2.27
934,9340,1791070280381,114986,101696,-0.8467,-0.2712,0.439,5.98,-0.21,2.63
935,9350,1791070280381,114986,101687,-0.8552,-0.2786,0.4368,4.27,-1.89,2.2
936,9360,1791070280441,114982,101682,-0.8533,-0.2798,0.4504,1.66,-5.21,1.77
937,9370,1791070280441,114969,101671,-0.8398,-0.2793,0.4458,-1.08,-6.61,1.33
938,9380,1791070280441,114966,101665,-0.8464,-0.2866,0.4426,-2.52,-6.43,0.78
939,9390,1791070280441,114960,101657,-0.8369,-0.2886,0.4316,-4.12,-5.92,0.08
940,9400,1791070280442,114956,101663,-0.8384,-0.2822,0.4326,-5.3,-6.47,0.38
941,9410,1791070280442,114961,101682,-0.8374,-0.2932,0.46,-5.8,-6.49,0.56
942,9420,1791070280442,114958,101678,-0.8274,-0.2883,0.4727,-4.4,-1.66,-0.12
943,9430,1791070280442,114975,101680,-0.8369,-0.2971,0.4468,-2.18,2.55,-0.89
944,9440,1791070280501,114974,101685,-0.8503,-0.2908,0.4373,-0.18,3.42,-0.56
945,9450,1791070280501,114979,101683,-0.8496,-0.2859,0.4346,0.5,1.97,0.09
946,9460,1791070280501,114986,101675,-0.8369,-0.282,0.4368,1.04,0.49,1.05
947,9470,1791070280501,115002,101667,-0.8396,-0.2808,0.4358,2.5,0.38,1.25
948,9480,1791070280561,115021,101661,-0.8418,-0.2847,0.4224,2.53,-1.1,1.19
949,9490,1791070280561,115045,101663,-0.8452,-0.2795,0.4307,-0.27,-3.76,1.19
950,9500,1791070280561,115068,101675,-0.8452,-0.2769,0.4622,-2.56,-6.67,1.02
951,9510,1791070280561,115096,101687,-0.8018,-0.2856,0.4651,-3.82,-5.07,-0.08
952,9520,1791070280562,115121,101688,-0.8613,-0.2852,0.457,-5.82,-0.11,-1.47
953,9530,1791070280562,115122,101695,-0.8428,-0.2871,0.4495,-6.09,-2.99,-1.1
954,9540,1791070280562,115137,101692,-0.8354,-0.2749,0.45,-4.41,-4.08,0.0
955,9550,1791070280562,115145,101699,-0.8359,-0.2812,0.4458,-2.79,-3.98,0.26
956,9560,1791070280621,115162,101703,-0.8306,-0.2825,0.4343,-1.19,-2.99,1.01
957,9570,1791070280621,115168,101701,-0.8408,-0.2803,0.4275,0.12,-2.6,1.45
958,9580,1791070280621,115180,101695,-0.8335,-0.2822,0.4355,2.17,-2.44,2.26
959,9590,1791070280621,115184,101697,-0.8384,-0.2849,0.4434,3.37,-1.28,2.66
960,9600,1791070280680,115188,101691,-0.8425,-0.2908,0.4348,3.01,-0.81,2.49
961,9610,1791070280680,115181,101683,-0.8516,-0.2876,0.4441,0.89,-3.59,2.58
962,9620,1791070280680,115193,101682,-0.8523,-0.2854,0.4487,-2.27,-6.02,2.21
963,9630,1791070280680,115203,101674,-0.8496,-0.2927,0.4697,-4.67,-5.6,0.87
964,9640,1791070280681,115220,101678,-0.8423,-0.291,0.4595,-6.2,-4.02,-0.66
965,9650,1791070280681,115237,101682,-0.8269,-0.293,0.457,-5.91,-1.6,-2.06
966,9660,1791070280681,115251,101692,-0.8411,-0.2832,0.4639,-5.3,0.17,-2.43
967,9670,1791070280681,115259,101694,-0.8491,-0.2861,0.4651,-5.19,-1.3,-2.05
968,9680,1791070280741,115262,101703,-0.8494,-0.2883,0.4602,-4.26,-3.97,-1.1
969,9690,1791070280741,115239,101697,-0.8389,-0.2878,0.4651,-3.07,-5.89,-0.35
970,9700,1791070280741,115204,101685,-0.8279,-0.2942,0.4592,-1.68,-5.95,0.56
971,9710,1791070280741,115142,101673,-0.823,-0.2812,0.4656,1.57,0.6,0.31
972,9720,1791070280801,115063,101645,-0.8345,-0.2842,0.4392,3.37,5.5,-0.4
973,9730,1791070280801,114980,101615,-0.8428,-0.2871,0.4148,4.02,5.48,-0.38
974,9740,1791070280801,114912,101591,-0.8547,-0.2793,0.4226,3.13,4.55,-0.29
975,9750,1791070280801,114841,101566,-0.8486,-0.283,0.4331,0.85,1.94,-0.52
976,9760,1791070280802,114786,101541,-0.8511,-0.2861,0.4636,-1.63,0.49,-0.56
977,9770,1791070280802,114723,101517,-0.8494,-0.282,0.4707,-2.63,2.03,-0.98
978,9780,1791070280802,114686,101506,-0.8452,-0.2878,0.4736,-2.29,0.76,-0.6
979,9790,1791070280802,114659,101496,-0.8481,-0.2856,0.4778,-1.02,-1.05,-0.06
980,9800,1791070280860,114647,101499,-0.8474,-0.283,0.4741,0.12,-4.6,1.37
981,9810,1791070280860,114651,101500,-0.8406,-0.2859,0.4797,-0.08,-7.33,1.85
982,9820,1791070280860,114667,101501,-0.8262,-0.2881,0.4675,-0.67,-5.6,0.9
983,9830,1791070280860,114683,101511,-0.8206,-0.2944,0.4688,-1.63,1.22,-0.66
984,9840,1791070280921,114701,101521,-0.8254,-0.3013,0.4387,-2.35,8.15,-2.63
985,9850,1791070280921,114711,101526,-0.8311,-0.2866,0.4265,-2.2,11.31,-2.81
986,9860,1791070280921,114738,101539,-0.834,-0.2991,0.3997,-0.35,8.9,-1.44
987,9870,1791070280921,114761,101541,-0.8269,-0.2878,0.3958,3.22,1.98,1.97
988,9880,1791070280922,114790,101553,-0.8259,-0.2908,0.4182,4.06,-4.23,4.44
989,9890,1791070280922,114810,101556,-0.8215,-0.2883,0.4119,5.4,-6.38,5.15
990,9900,1791070280922,114846,101562,-0.822,-0.2939,0.4131,6.06,-7.76,5.04
991,9910,1791070280922,114874,101572,-0.833,-0.2942,0.4084,4.17,-7.57,3.4
992,9920,1791070280981,114911,101582,-0.856,-0.2844,0.4441,-0.4,-9.59,2.11
993,9930,1791070280981,114926,101582,-0.8413,-0.2842,0.4797,-4.08,-11.76,1.44
994,9940,1791070280981,114946,101593,-0.8401,-0.2825,0.5012,-6.58,-11.34,0.55
995,9950,1791070280981,114950,101605,-0.8318,-0.2893,0.5146,-7.11,-8.14,-0.47
996,9960,1791070281041,114953,101610,-0.8237,-0.2837,0.5115,-4.27,-0.6,-1.62
997,9970,1791070281041,114948,101617,-0.8445,-0.2896,0.4614,-1.02,4.41,-2.24
998,9980,1791070281041,114946,101616,-0.8416,-0.2876,0.4436,0.63,2.76,-1.48
999,9990,1791070281041,114946,101616,-0.8401,-0.2861,0.4387,0.17,-0.38,-0.35
1000,10000,1791070281042,114928,101618,-0.8513,-0.2891,0.4326,-0.37,-4.64,0.5
1001,10010,1791070281042,114921,101614,-0.8335,-0.2993,0.4268,-1.37,-7.47,1.34
1002,10020,1791070281042,114905,101612,-0.8408,-0.2949,0.4343,-2.61,-6.75,1.31
1003,10030,1791070281042,114889,101607,-0.8369,-0.3079,0.4529,-2.67,-6.18,1.21
1004,10040,1791070281102,114873,101607,-0.8235,-0.2944,0.4585,-0.23,-2.55,0.41
1005,10050,1791070281102,114867,101602,-0.8496,-0.2803,0.4558,0.29,-0.79,0.08
1006,10060,1791070281102,114872,101604,-0.8445,-0.2881,0.4531,-1.62,-4.58,0.49
1007,10070,1791070281102,114883,101619,-0.832,-0.2878,0.4565,-2.41,-6.72,0.64
1008,10080,1791070281162,114893,101626,-0.822,-0.2927,0.4678,-1.74,-5.85,0.38
1009,10090,1791070281162,114890,101632,-0.8203,-0.292,0.4636,0.02,0.17,-0.61
1010,10100,1791070281162,114899,101638,-0.8435,-0.302,0.4468,0.26,4.35,-1.83
1011,10110,1791070281162,114916,101643,-0.8499,-0.29,0.448,-1.45,3.82,-1.63
1012,10120,1791070281162,114927,101649,-0.8438,-0.2893,0.4631,-3.56,1.28,-0.82
1013,10130,1791070281162,114944,101660,-0.8303,-0.2942,0.4629,-3.33,0.32,0.14
1014,10140,1791070281162,114963,101668,-0.8279,-0.2798,0.4734,-0.61,-0.06,1.33
1015,10150,1791070281162,114981,101669,-0.8286,-0.2874,0.457,1.68,-0.4,1.98
1016,10160,1791070281221,114988,101680,-0.8223,-0.2874,0.4485,3.54,1.11,1.37
1017,10170,1791070281221,114997,101678,-0.833,-0.291,0.4517,3.42,2.58,1.01
1018,10180,1791070281221,115015,101683,-0.8416,-0.2859,0.4478,2.76,3.1,0.55
1019,10190,1791070281221,115023,101686,-0.8376,-0.2837,0.4285,1.59,2.53,0.2
1020,10200,1791070281282,115030,101689,-0.8528,-0.2888,0.436,0.4,-0.63,0.6
1021,10210,1791070281282,115029,101690,-0.8462,-0.2903,0.4399,-2.55,-4.76,0.35
1022,10220,1791070281282,115042,101695,-0.8252,-0.3035,0.4602,-6.52,-5.6,-0.53
1023,10230,1791070281282,115042,101702,-0.8213,-0.3057,0.4553,-7.69,-0.26,-1.86
1024,10240,1791070281282,115049,101702,-0.8323,-0.2974,0.4685,-7.18,4.82,-2.73
1025,10250,1791070281282,115045,101708,-0.8372,-0.3083,0.4568,-5.01,6.89,-2.43
1026,10260,1791070281282,115062,101707,-0.8521,-0.2991,0.4524,-0.76,4.27,-0.64
1027,10270,1791070281282,115060,101708,-0.8335,-0.2839,0.4539,2.26,-0.11,1.08
1028,10280,1791070281342,115080,101710,-0.8281,-0.2812,0.4421,3.71,-2.14,1.83
1029,10290,1791070281342,115082,101729,-0.8257,-0.2834,0.4287,3.86,-3.21,1.69
1030,10300,1791070281342,115088,101713,-0.834,-0.2886,0.4351,1.08,-3.76,0.66
1031,10310,1791070281342,115081,101717,-0.8284,-0.2893,0.4346,-2.9,-5.24,-0.27
1032,10320,1791070281401,115067,101708,-0.823,-0.2986,0.4309,-6.38,-6.79,-0.73
1033,10330,1791070281401,115051,101704,-0.8152,-0.3032,0.4529,-7.19,-5.37,-0.92
1034,10340,1791070281401,115011,101695,-0.8093,-0.3103,0.4407,-5.92,1.73,-2.5
1035,10350,1791070281401,114954,101681,-0.8254,-0.2947,0.4304,-3.88,3.44,-2.31
1036,10360,1791070281402,114888,101652,-0.8235,-0.293,0.4414,-1.86,1.76,-1.45
1037,10370,1791070281402,114793,101634,-0.8391,-0.2927,0.4485,-0.47,-0.7,-0.66
1038,10380,1791070281402,114690,101604,-0.8325,-0.2881,0.4573,0.41,-3.98,-0.14
1039,10390,1791070281402,114573,101572,-0.8335,-0.2888,0.467,-0.03,-5.16,0.18
1040,10400,1791070281462,114451,101525,-0.8296,-0.293,0.4829,0.37,-3.77,0.17
1041,10410,1791070281462,114322,101484,-0.8389,-0.3,0.4741,1.13,-0.24,-0.24
1042,10420,1791070281462,114199,101452,-0.8423,-0.3022,0.4529,1.77,0.73,-0.03
1043,10430,1791070281462,114100,101412,-0.844,-0.3,0.4504,-0.03,-1.56,0.63
1044,10440,1791070281521,114018,101389,-0.835,-0.2927,0.4504,-1.97,-2.92,0.84
1045,10450,1791070281521,113952,101359,-0.8313,-0.2976,0.4507,-2.6,-3.5,1.16
1046,10460,1791070281521,113902,101333,-0.8328,-0.2908,0.4597,-2.29,-3.8,1.36
1047,10470,1791070281521,113857,101329,-0.8406,-0.2903,0.458,-1.83,-4.08,1.56
1048,10480,1791070281522,113830,101326,-0.8376,-0.2998,0.4661,-1.21,-4.5,1.74
1049,10490,1791070281522,113802,101314,-0.8379,-0.2974,0.4683,-0.44,-4.76,1.97
1050,10500,1791070281522,113791,101303,-0.825,-0.2966,0.4648,-0.09,-3.11,2.02
1051,10510,1791070281522,113788,101296,-0.8279,-0.2986,0.4629,1.18,-0.18,1.47
1052,10520,1791070281581,113794,101309,-0.8376,-0.3018,0.4377,1.91,1.18,1.21
1053,10530,1791070281581,113804,101313,-0.8433,-0.3032,0.436,0.43,-0.41,1.25
1054,10540,1791070281581,113824,101313,-0.833,-0.2986,0.4485,-1.48,-1.94,0.95
1055,10550,1791070281581,113850,101322,-0.8289,-0.2952,0.4456,-3.54,-2.06,0.37
1056,10560,1791070281640,113864,101329,-0.8433,-0.2878,0.4778,-4.96,-2.35,0.02
1057,10570,1791070281640,113880,101330,-0.8362,-0.2898,0.4795,-4.73,-2.09,-0.08
1058,10580,1791070281640,113895,101335,-0.8381,-0.2896,0.4646,-2.73,-1.68,0.41
1059,10590,1791070281640,113894,101342,-0.8362,-0.2959,0.45,-1.16,-1.68,0.64
1060,10600,1791070281641,113894,101344,-0.8335,-0.2927,0.4399,-0.29,-1.94,0.96
1061,10610,1791070281641,113885,101336,-0.8293,-0.2942,0.4578,0.15,-1.83,1.45
1062,10620,1791070281641,113866,101333,-0.8359,-0.301,0.4417,0.73,-0.2,1.3
1063,10630,1791070281641,113853,101320,-0.833,-0.2979,0.4412,1.57,-0.38,1.37
1064,10640,1791070281701,113841,101318,-0.832,-0.3008,0.46,1.34,-1.4,1.73
1065,10650,1791070281701,113827,101312,-0.8262,-0.2974,0.4568,0.76,0.21,0.75
1066,10660,1791070281701,113810,101308,-0.8291,-0.291,0.4658,0.23,3.66,-0.52
1067,10670,1791070281701,113793,101303,-0.8328,-0.2891,0.4622,0.02,5.79,-1.19
1068,10680,1791070281761,113774,101290,-0.8413,-0.2832,0.4521,0.81,5.92,-1.4
1069,10690,1791070281761,113772,101290,-0.8547,-0.2854,0.4465,-0.69,3.16,-0.85
1070,10700,1791070281761,113771,101297,-0.8494,-0.2891,0.4443,-2.93,-1.22,-0.35
1071,10710,1791070281761,113777,101297,-0.8364,-0.2927,0.4514,-3.04,-3.85,0.41
1072,10720,1791070281762,113775,101295,-0.8347,-0.2991,0.4495,-1.51,-4.38,1.19
1073,10730,1791070281762,113777,101299,-0.8269,-0.2927,0.4541,0.37,-4.7,1.88
1074,10740,1791070281762,113785,101297,-0.825,-0.2917,0.4651,0.81,-3.69,1.98
1075,10750,1791070281762,113800,101302,-0.8293,-0.293,0.4739,0.64,-1.94,1.39
1076,10760,1791070281821,113816,101308,-0.8367,-0.2966,0.4502,0.53,-0.58,1.07
1077,10770,1791070281821,113839,101312,-0.8296,-0.2971,0.4304,-0.14,-1.48,1.08
1078,10780,1791070281821,113854,101333,-0.8291,-0.2986,0.4373,-1.5,-1.57,0.89
1079,10790,1791070281821,113876,101329,-0.8196,-0.2976,0.4399,-2.0,0.76,-0.26
1080,10800,1791070281881,113899,101335,-0.8274,-0.2959,0.4456,-1.19,2.89,-0.79
1081,10810,1791070281881,113915,101338,-0.8301,-0.2944,0.4497,0.12,2.78,-0.29
1082,10820,1791070281881,113939,101350,-0.8342,-0.2908,0.457,1.15,1.5,0.41
1083,10830,1791070281881,113970,101365,-0.8196,-0.2915,0.4631,2.87,1.21,0.7
1084,10840,1791070281882,114002,101366,-0.8293,-0.2866,0.4512,4.29,2.84,0.49
1085,10850,1791070281882,114039,101387,-0.8303,-0.2883,0.4426,2.73,2.17,0.29
1086,10860,1791070281882,114065,101397,-0.8389,-0.2944,0.428,-0.9,-0.29,0.17
1087,10870,1791070281882,114094,101400,-0.8345,-0.3071,0.4482,-5.31,-3.53,-0.09
1088,10880,1791070281941,114114,101406,-0.8289,-0.303,0.4646,-9.08,-3.15,-0.82
1089,10890,1791070281941,114105,101406,-0.8308,-0.3042,0.4641,-8.0,-1.77,-0.72
1090,10900,1791070281941,114119,101402,-0.832,-0.3025,0.4702,-3.83,-1.76,0.84
1091,10910,1791070281941,114132,101405,-0.8308,-0.3071,0.4517,0.44,-1.76,1.95
1092,10920,1791070282001,114152,101416,-0.8242,-0.2993,0.4504,3.31,-0.05,2.03
1093,10930,1791070282001,114171,101415,-0.8262,-0.2981,0.4304,4.92,1.5,1.88
1094,10940,1791070282001,114191,101421,-0.8291,-0.2961,0.4321,5.83,0.82,2.27
1095,10950,1791070282001,114207,101423,-0.8462,-0.3069,0.416,4.47,-2.06,2.66
1096,10960,1791070282002,114230,101426,-0.8337,-0.3037,0.4333,2.49,-5.88,2.99
1097,10970,1791070282002,114247,101430,-0.8347,-0.2986,0.4561,-0.78,-5.56,2.46
1098,10980,1791070282002,114264,101436,-0.8394,-0.2996,0.4497,-3.15,-4.15,1.56
1099,10990,1791070282002,114258,101431,-0.8406,-0.29,0.4602,-4.26,-4.18,0.76
1100,11000,1791070282062,114241,101422,-0.8318,-0.2874,0.4595,-4.23,-3.4,0.06
1101,11010,1791070282062,114182,101406,-0.8359,-0.2891,0.468,-3.86,-2.21,-0.35
1102,11020,1791070282062,114094,101376,-0.8313,-0.2908,0.4626,-1.79,-0.32,-0.47
1103,11030,1791070282062,113971,101341,-0.8398,-0.2937,0.4604,1.18,1.51,-0.2
1104,11040,1791070282122,113849,101293,-0.8474,-0.2932,0.47,3.02,0.81,0.61
1105,11050,1791070282122,113714,101255,-0.8435,-0.302,0.4836,2.11,-0.17,0.64
1106,11060,1791070282122,113593,101218,-0.8254,-0.2966,0.4846,0.76,3.92,-0.46
1107,11070,1791070282122,113484,101173,-0.8369,-0.303,0.4597,-0.09,7.54,-1.19
1108,11080,1791070282122,113410,101143,-0.8433,-0.2935,0.4451,-0.46,7.57,-1.22
1109,11090,1791070282122,113353,101124,-0.842,-0.2937,0.4221,-1.59,4.72,-0.46
1110,11100,1791070282122,113335,101117,-0.8433,-0.3042,0.4165,-3.33,-0.14,0.47
1111,11110,1791070282122,113322,101109,-0.822,-0.3027,0.4248,-2.6,-3.85,1.85
1112,11120,1791070282181,113325,101106,-0.8237,-0.3032,0.4478,0.44,-1.82,1.97
1113,11130,1791070282181,113336,101110,-0.8379,-0.2756,0.4849,4.37,2.38,1.36
1114,11140,1791070282181,113368,101121,-0.8499,-0.2913,0.4321,5.8,0.92,2.26
1115,11150,1791070282181,113405,101135,-0.8125,-0.2898,0.4636,3.94,-3.91,3.28
1116,11160,1791070282182,113445,101140,-0.8247,-0.2886,0.4541,3.4,0.21,1.83
1117,11170,1791070282182,113490,101159,-0.8306,-0.283,0.4553,1.89,0.99,0.99
1118,11180,1791070282182,113535,101171,-0.8306,-0.2798,0.4619,-0.73,-0.99,0.61
1119,11190,1791070282182,113581,101186,-0.825,-0.2927,0.4519,-4.14,-2.02,-0.2
1120,11200,1791070282241,113620,101199,-0.8279,-0.3022,0.4402,-6.52,-1.94,-0.89
1121,11210,1791070282241,113661,101214,-0.8279,-0.2981,0.4343,-8.2,-2.93,-0.93
1122,11220,1791070282241,113705,101234,-0.8274,-0.2952,0.4302,-7.69,-2.29,-1.13
1123,11230,1791070282241,113742,101246,-0.8293,-0.303,0.4231,-6.38,-2.95,-0.46
1124,11240,1791070282301,113763,101256,-0.8193,-0.2961,0.4541,-2.61,-1.48,0.02
1125,11250,1791070282301,113776,101261,-0.8293,-0.3005,0.4441,2.2,2.15,0.26
1126,11260,1791070282301,113797,101270,-0.8289,-0.302,0.4407,5.05,2.27,0.53
1127,11270,1791070282301,113802,101267,-0.8313,-0.2981,0.4541,5.34,3.6,0.87
1128,11280,1791070282360,113822,101271,-0.8347,-0.2942,0.4607,3.83,5.01,0.49
1129,11290,1791070282360,113835,101273,-0.8462,-0.2935,0.4543,2.73,3.34,0.79
1130,11300,1791070282360,113850,101280,-0.8474,-0.2915,0.4543,1.05,0.24,1.08
1131,11310,1791070282360,113854,101275,-0.8496,-0.2905,0.4624,-1.8,-4.56,1.45
1132,11320,1791070282361,113852,101268,-0.8367,-0.291,0.4575,-4.27,-6.82,1.15
1133,11330,1791070282361,113847,101264,-0.8374,-0.2976,0.4497,-4.96,-5.79,0.5
1134,11340,1791070282361,113837,101274,-0.8357,-0.2959,0.4592,-4.41,-3.5,0.2
1135,11350,1791070282361,113834,101266,-0.8367,-0.2961,0.4446,-3.07,-0.55,-0.24
1136,11360,1791070282421,113828,101256,-0.8347,-0.3008,0.4417,-1.59,0.5,-0.14
1137,11370,1791070282421,113843,101259,-0.8289,-0.3027,0.437,0.92,1.68,0.06
1138,11380,1791070282421,113862,101274,-0.8298,-0.2988,0.4348,3.53,3.37,0.4
1139,11390,1791070282421,113904,101287,-0.8362,-0.2988,0.4246,4.37,3.42,0.66
1140,11400,1791070282422,113948,101296,-0.8354,-0.2925,0.4365,3.1,2.08,0.64
1141,11410,1791070282422,114001,101319,-0.8374,-0.2876,0.4502,1.01,1.53,0.4
1142,11420,1791070282422,114043,101331,-0.8401,-0.2883,0.4514,-1.62,-1.05,0.34
1143,11430,1791070282422,114097,101343,-0.8376,-0.2908,0.4497,-2.87,-3.5,0.63
1144,11440,1791070282481,114131,101360,-0.8362,-0.2883,0.4482,-4.08,-5.36,0.75
1145,11450,1791070282481,114161,101375,-0.8303,-0.2893,0.4849,-3.74,-4.7,0.56
1146,11460,1791070282481,114190,101388,-0.8269,-0.2922,0.4724,-1.4,-0.78,0.34
1147,11470,1791070282481,114213,101393,-0.8386,-0.2954,0.449,1.02,0.15,0.84
1148,11480,1791070282541,114251,101397,-0.8337,-0.3066,0.4399,1.42,-1.86,1.13
1149,11490,1791070282541,114282,101403,-0.8225,-0.3003,0.4458,1.77,-1.21,0.96
1150,11500,1791070282541,114319,101419,-0.8281,-0.2976,0.4424,2.23,1.07,0.29
1151,11510,1791070282541,114350,101431,-0.8301,-0.2971,0.4238,1.04,1.31,-0.49
1152,11520,1791070282542,114397,101440,-0.8369,-0.3018,0.4102,-2.2,-0.11,-1.1
1153,11530,1791070282542,114434,101456,-0.8242,-0.291,0.4294,-5.8,-3.34,-1.27
1154,11540,1791070282542,114462,101468,-0.8245,-0.2883,0.4404,-7.94,-5.01,-1.57
1155,11550,1791070282542,114489,101477,-0.8352,-0.2974,0.4521,-7.77,-5.68,-1.08
1156,11560,1791070282600,114492,101478,-0.8372,-0.302,0.4595,-6.23,-6.53,-0.21
1157,11570,1791070282600,114505,101490,-0.8452,-0.2971,0.4692,-4.4,-7.89,1.02
1158,11580,1791070282600,114517,101481,-0.8364,-0.3052,0.481,-2.61,-6.4,1.53
1159,11590,1791070282600,114523,101495,-0.8323,-0.3083,0.4602,-1.59,-4.35,1.27
1160,11600,1791070282662,114543,101493,-0.8367,-0.3079,0.4656,-0.85,-1.83,0.84
1161,11610,1791070282662,114561,101496,-0.8325,-0.3171,0.46,-1.3,-0.46,0.31
1162,11620,1791070282662,114589,101503,-0.8318,-0.3127,0.4529,-1.62,0.93,0.09
1163,11630,1791070282662,114604,101506,-0.835,-0.3108,0.4458,-1.56,0.95,0.06
1164,11640,1791070282723,114611,101511,-0.8347,-0.3137,0.4421,-0.99,0.64,0.44
1165,11650,1791070282723,114592,101509,-0.8325,-0.3096,0.446,1.51,-0.15,1.74
1166,11660,1791070282723,114555,101487,-0.8325,-0.2993,0.4482,4.18,0.95,2.73
1167,11670,1791070282723,114490,101464,-0.8516,-0.3013,0.4517,4.7,0.76,3.05
1168,11680,1791070282723,114399,101443,-0.8464,-0.2908,0.448,3.54,-0.79,3.1
1169,11690,1791070282723,114303,101407,-0.8389,-0.2961,0.4744,0.87,-1.25,2.61
1170,11700,1791070282723,114216,101363,-0.8416,-0.2869,0.4836,-0.5,2.38,1.59
1171,11710,1791070282723,114117,101336,-0.8562,-0.2864,0.488,-0.95,4.09,1.11
1172,11720,1791070282782,114040,101305,-0.8564,-0.2883,0.4707,-1.68,3.69,0.92
1173,11730,1791070282782,113982,101280,-0.843,-0.2874,0.4749,-2.41,0.92,1.34
1174,11740,1791070282782,113941,101275,-0.8301,-0.2922,0.4497,-1.71,1.33,1.19
1175,11750,1791070282782,113921,101262,-0.8342,-0.2988,0.4329,-0.55,2.41,1.13
1176,11760,1791070282841,113916,101259,-0.8237,-0.2932,0.4084,-0.02,2.55,1.19
1177,11770,1791070282841,113930,101257,-0.8352,-0.2952,0.4067,0.23,-0.21,1.89
1178,11780,1791070282841,113952,101275,-0.8298,-0.2947,0.4309,-0.03,-3.62,2.34
1179,11790,1791070282841,113983,101291,-0.8206,-0.2947,0.4392,0.06,-3.89,2.17
1180,11800,1791070282842,114023,101289,-0.8213,-0.2976,0.4431,0.37,-1.74,1.25
1181,11810,1791070282842,114057,101309,-0.8232,-0.2905,0.4534,0.99,2.2,0.29
1182,11820,1791070282842,114101,101318,-0.8301,-0.2886,0.4463,1.97,4.35,-0.02
1183,11830,1791070282842,114158,101338,-0.8281,-0.28,0.4456,1.33,3.3,0.37
1184,11840,1791070282901,114222,101367,-0.834,-0.2844,0.4734,-0.12,3.08,-0.2
1185,11850,1791070282901,114272,101380,-0.8369,-0.292,0.4529,-1.05,3.37,-0.7
1186,11860,1791070282901,114333,101399,-0.8359,-0.2917,0.4492,-2.08,-0.12,-0.27
1187,11870,1791070282901,114395,101422,-0.834,-0.2898,0.4551,-2.47,-2.47,0.17
1188,11880,1791070282902,114452,101439,-0.8271,-0.2991,0.4397,-2.43,-3.24,0.34
1189,11890,1791070282902,114486,101449,-0.8284,-0.3044,0.4307,-1.77,-3.1,0.49
1190,11900,1791070282902,114502,101466,-0.8357,-0.2976,0.4346,-1.39,-2.89,0.52
1191,11910,1791070282902,114529,101465,-0.833,-0.2966,0.4304,-0.85,-3.1,0.7
1192,11920,1791070282961,114547,101473,-0.8369,-0.3044,0.4336,0.09,-3.86,0.93
1193,11930,1791070282961,114532,101470,-0.8325,-0.3035,0.4541,0.96,-2.32,0.49
1194,11940,1791070282961,114523,101462,-0.8333,-0.2947,0.4487,0.9,0.17,-0.08
1195,11950,1791070282961,114514,101468,-0.8369,-0.2935,0.4604,0.49,1.13,-0.06
1196,11960,1791070283021,114496,101452,-0.8503,-0.2935,0.4565,0.64,1.56,0.11
1197,11970,1791070283021,114474,101450,-0.8406,-0.2939,0.4619,0.05,-0.79,0.7
1198,11980,1791070283021,114466,101445,-0.8328,-0.29,0.4583,-0.11,-1.85,1.16
1199,11990,1791070283021,114454,101441,-0.834,-0.3015,0.4524,-0.03,-0.35,0.85
1200,12000,1791070283022,114458,101442,-0.8394,-0.2957,0.4414,-0.46,0.92,0.17
1201,12010,1791070283022,114464,101440,-0.8462,-0.3022,0.4395,-1.28,-1.33,0.61
1202,12020,1791070283022,114482,101447,-0.8459,-0.304,0.4551,-2.87,-4.06,0.58
1203,12030,1791070283022,114499,101449,-0.8359,-0.3086,0.4429,-3.24,-3.39,0.14
1204,12040,1791070283080,114510,101452,-0.8303,-0.2942,0.4189,-2.93,-1.71,0.06
1205,12050,1791070283080,114518,101461,-0.8325,-0.3015,0.439,-2.69,-1.05,0.49
1206,12060,1791070283080,114539,101471,-0.8328,-0.2971,0.4551,-1.42,-0.2,0.76
1207,12070,1791070283080,114556,101477,-0.8262,-0.2976,0.4478,-0.31,-0.6,1.39
1208,12080,1791070283141,114580,101485,-0.8308,-0.2964,0.4487,1.98,0.56,1.51
1209,12090,1791070283141,114615,101491,-0.8374,-0.2883,0.4529,3.28,3.18,0.92
1210,12100,1791070283141,114648,101503,-0.8406,-0.2903,0.4375,2.81,4.87,0.5
1211,12110,1791070283141,114691,101513,-0.8413,-0.281,0.4443,2.69,1.98,1.02
1212,12120,1791070283142,114725,101526,-0.8501,-0.2839,0.4382,1.82,-1.97,1.68
1213,12130,1791070283142,114753,101538,-0.8418,-0.2979,0.447,-0.43,-5.91,2.12
1214,12140,1791070283142,114787,101552,-0.8281,-0.3054,0.4397,-2.32,-7.19,1.85
1215,12150,1791070283142,114808,101553,-0.8357,-0.3059,0.4512,-3.37,-4.96,0.79
1216,12160,1791070283201,114836,101552,-0.835,-0.2952,0.4421,-4.31,-1.98,-0.56
1217,12170,1791070283201,114839,101561,-0.8396,-0.2839,0.4468,-4.29,0.43,-1.05
1218,12180,1791070283201,114859,101554,-0.8384,-0.2917,0.4448,-2.05,0.58,-0.6
1219,12190,1791070283201,114874,101564,-0.8352,-0.2834,0.4463,0.81,-1.15,0.27
1220,12200,1791070283260,114890,101579,-0.8308,-0.2893,0.4377,2.9,-2.18,1.15
1221,12210,1791070283260,114907,101586,-0.8254,-0.2993,0.4199,2.66,-1.28,0.31
1222,12220,1791070283260,114927,101586,-0.8179,-0.2986,0.4304,0.12,0.87,-0.87
1223,12230,1791070283260,114940,101595,-0.8298,-0.2935,0.4429,-1.18,1.97,-1.71
1224,12240,1791070283261,114958,101598,-0.8467,-0.2905,0.4561,-2.0,0.03,-1.21
1225,12250,1791070283261,114966,101606,-0.8586,-0.2942,0.4717,-3.54,-3.91,-0.14
1226,12260,1791070283261,114989,101612,-0.8472,-0.303,0.4592,-4.82,-6.18,0.12
1227,12270,1791070283261,114995,101611,-0.8376,-0.2981,0.4492,-4.72,-6.55,0.43
1228,12280,1791070283321,114996,101615,-0.8267,-0.3013,0.4495,-3.33,-5.83,0.6
1229,12290,1791070283321,115005,101615,-0.8171,-0.3008,0.4421,-0.95,-2.55,0.32
1230,12300,1791070283321,115000,101618,-0.8296,-0.3044,0.4551,0.93,1.4,-0.44
1231,12310,1791070283321,114993,101618,-0.8303,-0.2942,0.4392,2.95,2.7,-0.52
1232,12320,1791070283381,114994,101612,-0.8301,-0.3025,0.4333,3.94,1.54,0.08
1233,12330,1791070283381,114973,101609,-0.824,-0.3059,0.436,2.69,0.0,0.17
1234,12340,1791070283381,114933,101583,-0.834,-0.3069,0.4341,-0.37,1.18,-0.52
1235,12350,1791070283381,114854,101557,-0.8403,-0.2959,0.4358,-3.31,-0.84,-0.6
1236,12360,1791070283382,114758,101520,-0.8447,-0.3,0.4592,-5.34,-4.87,0.09
1237,12370,1791070283382,114639,101484,-0.8403,-0.3015,0.479,-6.35,-6.43,0.31
1238,12380,1791070283382,114510,101448,-0.8359,-0.3,0.4858,-4.98,-3.71,0.26
1239,12390,1791070283382,114381,101399,-0.8467,-0.302,0.4705,-2.41,-1.51,0.66
1240,12400,1791070283443,114255,101361,-0.8337,-0.313,0.467,0.24,0.31,0.82
1241,12410,1791070283443,114165,101323,-0.8394,-0.2961,0.4739,1.59,3.07,0.99
1242,12420,1791070283443,114081,101299,-0.8418,-0.2915,0.4722,2.7,4.06,0.92
1243,12430,1791070283443,114032,101287,-0.8418,-0.2969,0.4487,3.85,3.22,1.33
1244,12440,1791070283501,114002,101271,-0.8342,-0.3018,0.4141,2.78,-0.05,1.91
1245,12450,1791070283501,114001,101265,-0.822,-0.301,0.4229,0.41,-2.63,1.88
1246,12460,1791070283501,114003,101268,-0.8167,-0.302,0.4216,-1.91,-2.98,1.13
1247,12470,1791070283501,114014,101275,-0.8254,-0.2986,0.4141,-3.39,-1.44,0.09
1248,12480,1791070283502,114026,101282,-0.8367,-0.2983,0.4399,-5.47,-2.18,-0.53
1249,12490,1791070283502,114023,101284,-0.8269,-0.2969,0.4468,-6.11,-2.31,-0.35
1250,12500,1791070283502,114032,101283,-0.8298,-0.2979,0.4568,-3.01,-2.31,0.23
1251,12510,1791070283502,114043,101288,-0.8274,-0.2996,0.481,-0.06,-1.88,1.21
1252,12520,1791070283562,114056,101293,-0.8325,-0.2988,0.4788,1.28,1.05,0.66
1253,12530,1791070283562,114093,101304,-0.833,-0.3035,0.4546,2.53,3.57,0.06
1254,12540,1791070283562,114123,101321,-0.832,-0.3035,0.4512,2.52,2.52,0.14
1255,12550,1791070283562,114171,101330,-0.8401,-0.3057,0.4363,0.87,0.84,0.26
1256,12560,1791070283621,114214,101340,-0.8367,-0.2991,0.438,-1.36,-1.57,0.44
1257,12570,1791070283621,114245,101358,-0.8303,-0.3037,0.4353,-2.46,-3.76,0.81
1258,12580,1791070283621,114272,101369,-0.832,-0.304,0.4314,-2.14,-3.54,0.78
1259,12590,1791070283621,114281,101366,-0.8323,-0.3042,0.426,-1.01,-1.73,0.84
1260,12600,1791070283622,114288,101372,-0.8291,-0.2952,0.4446,0.32,-0.82,0.82
1261,12610,1791070283622,114285,101376,-0.8374,-0.2927,0.4565,2.23,2.23,0.26
1262,12620,1791070283622,114278,101362,-0.8464,-0.2849,0.4551,3.56,3.4,0.12
1263,12630,1791070283622,114275,101356,-0.8511,-0.2891,0.4509,3.25,1.56,0.32
1264,12640,1791070283683,114271,101368,-0.8474,-0.293,0.4438,1.15,-1.21,0.72
1265,12650,1791070283683,114260,101354,-0.8462,-0.2939,0.4524,-2.69,-3.65,0.38
1266,12660,1791070283683,114240,101354,-0.8379,-0.3005,0.4504,-6.56,-4.53,-0.52
1267,12670,1791070283683,114222,101342,-0.8386,-0.3049,0.449,-8.2,-5.51,-0.52
1268,12680,1791070283742,114199,101343,-0.8372,-0.3032,0.4722,-7.47,-5.19,-0.21
1269,12690,1791070283742,114180,101334,-0.8364,-0.3113,0.4624,-5.4,-3.74,0.09
1270,12700,1791070283742,114151,101337,-0.8311,-0.3035,0.46,-1.6,-1.92,0.37
1271,12710,1791070283742,114149,101335,-0.8257,-0.3096,0.4421,2.2,0.46,0.98
1272,12720,1791070283742,114163,101338,-0.8291,-0.3081,0.4348,4.66,2.05,1.42
1273,12730,1791070283742,114186,101341,-0.8293,-0.3057,0.4348,4.99,3.07,1.25
1274,12740,1791070283742,114221,101358,-0.8284,-0.3069,0.4355,4.79,4.79,0.87
1275,12750,1791070283742,114257,101364,-0.8394,-0.301,0.4377,3.74,4.67,0.9
1276,12760,1791070283801,114296,101376,-0.8369,-0.2942,0.4375,1.65,2.64,0.92
1277,12770,1791070283801,114335,101383,-0.834,-0.2939,0.4419,-0.24,0.63,0.66
1278,12780,1791070283801,114377,101397,-0.8267,-0.2896,0.4419,-1.25,-1.11,1.04
1279,12790,1791070283801,114402,101412,-0.8306,-0.2871,0.4541,-1.24,-2.09,0.99
1280,12800,1791070283862,114443,101424,-0.8357,-0.2932,0.4507,-1.51,-2.18,0.95
1281,12810,1791070283862,114463,101425,-0.8367,-0.2932,0.4375,-1.97,-3.62,0.82
1282,12820,1791070283862,114498,101439,-0.8325,-0.3044,0.4465,-2.67,-6.06,1.4
1283,12830,1791070283862,114521,101447,-0.8325,-0.3091,0.4507,-2.93,-5.31,0.84
1284,12840,1791070283862,114545,101450,-0.8333,-0.3137,0.4495,-4.06,-3.24,0.0
1285,12850,1791070283862,114564,101451,-0.8281,-0.3191,0.4438,-4.58,-1.51,-0.32
1286,12860,1791070283862,114582,101462,-0.8298,-0.3188,0.4402,-3.1,-0.63,-0.37
1287,12870,1791070283862,114604,101465,-0.8284,-0.3103,0.4558,-1.51,0.93,0.14
1288,12880,1791070283921,114621,101474,-0.8259,-0.3049,0.4456,1.62,3.11,0.08
1289,12890,1791070283921,114645,101483,-0.832,-0.2957,0.448,4.6,5.07,0.61
1290,12900,1791070283921,114673,101487,-0.8367,-0.293,0.4336,5.34,4.43,0.99
1291,12910,1791070283921,114697,101496,-0.8364,-0.2957,0.4431,3.94,2.03,1.28
1292,12920,1791070283981,114732,101509,-0.8367,-0.2925,0.4465,1.39,-1.6,1.56
1293,12930,1791070283981,114755,101518,-0.8293,-0.2957,0.4509,-0.82,-3.89,1.33
1294,12940,1791070283981,114775,101525,-0.8303,-0.2905,0.4446,-2.46,-3.83,1.04
1295,12950,1791070283981,114786,101537,-0.8357,-0.2971,0.4541,-4.06,-4.5,0.66
1296,12960,1791070283981,114799,101540,-0.823,-0.2988,0.4619,-3.76,-4.55,0.69
1297,12970,1791070283981,114815,101544,-0.8301,-0.2983,0.4443,-3.11,-0.75,-0.56
1298,12980,1791070283981,114823,101553,-0.8357,-0.3057,0.4209,-3.1,1.02,-1.16
1299,12990,1791070283981,114843,101557,-0.8367,-0.3054,0.415,-2.93,-0.87,-0.06
1300,13000,1791070284044,114863,101562,-0.8284,-0.3052,0.4265,-2.31,-3.1,0.61
1301,13010,1791070284044,114871,101570,-0.825,-0.3147,0.4358,-1.37,-3.53,0.96
1302,13020,1791070284044,114879,101561,-0.8235,-0.3081,0.4465,0.61,-1.77,0.99
1303,13030,1791070284044,114876,101564,-0.8359,-0.3032,0.4612,2.52,1.22,0.75
1304,13040,1791070284101,114855,101548,-0.8384,-0.2964,0.468,3.44,3.11,0.56
1305,13050,1791070284101,114788,101533,-0.8486,-0.2913,0.4641,3.73,2.75,0.95
1306,13060,1791070284101,114719,101501,-0.8508,-0.29,0.4629,3.21,0.82,1.37
1307,13070,1791070284101,114631,101479,-0.8569,-0.2898,0.4597,0.56,-2.89,1.53
1308,13080,1791070284102,114522,101434,-0.844,-0.2954,0.4485,-2.76,-5.48,1.27
1309,13090,1791070284102,114403,101404,-0.8372,-0.3022,0.4473,-4.92,-5.15,0.82
1310,13100,1791070284102,114292,101364,-0.8401,-0.3003,0.4436,-5.4,-3.86,0.12
1311,13110,1791070284102,114175,101331,-0.8379,-0.3086,0.4341,-5.11,-2.79,-0.03
1312,13120,1791070284162,114074,101298,-0.8347,-0.3088,0.4412,-4.18,-2.08,0.12
1313,13130,1791070284162,113973,101276,-0.8315,-0.3088,0.4404,-2.05,-1.28,0.69
1314,13140,1791070284162,113916,101236,-0.8281,-0.3069,0.437,0.63,-0.73,1.59
1315,13150,1791070284162,113862,101230,-0.8301,-0.3069,0.4336,2.55,-0.64,2.18
1316,13160,1791070284221,113841,101221,-0.8325,-0.3057,0.4404,2.79,-0.89,2.08
1317,13170,1791070284221,113836,101224,-0.8293,-0.2991,0.4492,1.63,-0.5,1.66
1318,13180,1791070284221,113867,101220,-0.8342,-0.2971,0.4644,-0.15,-0.67,1.31
1319,13190,1791070284221,113890,101226,-0.8418,-0.2969,0.469,-1.25,-1.56,1.34
1320,13200,1791070284222,113932,101243,-0.8342,-0.2979,0.4705,-1.18,-2.18,1.11
1321,13210,1791070284222,113962,101256,-0.8369,-0.2974,0.4714,-0.35,-1.31,1.02
1322,13220,1791070284222,113988,101257,-0.8289,-0.2917,0.4541,0.64,0.34,0.55
1323,13230,1791070284222,114017,101267,-0.8303,-0.2925,0.4414,0.76,1.31,0.52
1324,13240,1791070284281,114047,101280,-0.8301,-0.2878,0.4355,-0.11,0.4,0.58
1325,13250,1791070284281,114076,101284,-0.8274,-0.2949,0.4292,-1.42,-1.33,0.5
1326,13260,1791070284281,114105,101300,-0.8271,-0.3008,0.4302,-2.47,-2.9,0.67
1327,13270,1791070284281,114143,101308,-0.8264,-0.3052,0.4346,-2.43,-4.58,1.02
1328,13280,1791070284341,114170,101312,-0.8171,-0.3081,0.429,-1.76,-2.93,0.41
1329,13290,1791070284341,114179,101316,-0.8311,-0.3062,0.4277,-1.82,-1.39,0.09
1330,13300,1791070284341,114202,101320,-0.8337,-0.3066,0.448,-1.91,-2.26,0.37
1331,13310,1791070284341,114207,101323,-0.8262,-0.3057,0.4666,-0.67,-2.29,0.82
1332,13320,1791070284342,114200,101326,-0.8359,-0.3071,0.4658,1.39,-0.49,0.76
1333,13330,1791070284342,114196,101318,-0.8389,-0.3025,0.4563,3.16,2.15,0.56
1334,13340,1791070284342,114189,101319,-0.8394,-0.2986,0.4565,3.19,1.85,0.73
1335,13350,1791070284342,114194,101313,-0.8362,-0.293,0.4712,1.91,1.37,0.53
1336,13360,1791070284401,114191,101310,-0.8394,-0.2964,0.4658,-0.32,-0.08,0.26
1337,13370,1791070284401,114190,101316,-0.8374,-0.2976,0.4568,-2.15,-0.69,0.05
1338,13380,1791070284401,114189,101319,-0.8374,-0.2988,0.4434,-3.47,-2.14,-0.06
1339,13390,1791070284401,114188,101315,-0.8357,-0.3059,0.4365,-3.94,-2.95,0.43
1340,13400,1791070284461,114184,101315,-0.8252,-0.3044,0.4275,-3.89,-3.83,1.15
1341,13410,1791070284461,114183,101319,-0.8269,-0.3101,0.4539,-3.1,-2.64,1.18
1342,13420,1791070284461,114184,101322,-0.8328,-0.3076,0.4292,-1.45,0.31,0.72
1343,13430,1791070284461,114194,101324,-0.8291,-0.3064,0.4456,-0.56,0.61,0.92
1344,13440,1791070284462,114210,101328,-0.8318,-0.2998,0.4534,0.35,1.05,1.08
1345,13450,1791070284462,114229,101336,-0.8374,-0.3015,0.4529,1.57,0.87,1.47
1346,13460,1791070284462,114252,101333,-0.8352,-0.2986,0.4531,2.55,-0.06,1.73
1347,13470,1791070284462,114272,101337,-0.8298,-0.3,0.4578,1.94,0.26,1.34
1348,13480,1791070284522,114311,101349,-0.8311,-0.293,0.4448,0.79,1.37,0.5
1349,13490,1791070284522,114348,101362,-0.835,-0.2932,0.4409,-0.52,0.64,0.29
1350,13500,1791070284522,114388,101378,-0.8408,-0.2932,0.4434,-1.71,-1.18,0.55
1351,13510,1791070284522,114440,101388,-0.8406,-0.2988,0.4473,-3.05,-3.21,0.38
1352,13520,1791070284583,114487,101401,-0.8342,-0.2988,0.4473,-3.97,-3.36,-0.06
1353,13530,1791070284583,114513,101411,-0.822,-0.2974,0.4419,-3.19,-2.58,0.31
1354,13540,1791070284583,114533,101424,-0.8271,-0.3027,0.4453,-1.48,-1.83,0.64
1355,13550,1791070284583,114556,101430,-0.8301,-0.3057,0.4351,0.43,-1.27,1.01
1356,13560,1791070284583,114579,101436,-0.8232,-0.2986,0.4485,1.56,-1.19,1.45
1357,13570,1791070284583,114594,101440,-0.8306,-0.3015,0.4536,1.89,0.21,1.15
1358,13580,1791070284583,114625,101448,-0.8289,-0.3049,0.447,1.24,1.02,0.73
1359,13590,1791070284583,114654,101457,-0.8281,-0.3027,0.45,0.56,0.92,0.53
1360,13600,1791070284642,114689,101462,-0.8376,-0.3049,0.4377,-0.6,-0.27,0.37
1361,13610,1791070284642,114727,101474,-0.8418,-0.2993,0.4395,-1.44,-2.0,0.49
1362,13620,1791070284642,114749,101489,-0.8345,-0.3003,0.4521,-1.62,-2.46,0.56
1363,13630,1791070284642,114776,101498,-0.8328,-0.2971,0.4563,-0.55,-1.97,0.7
1364,13640,1791070284702,114798,101502,-0.8413,-0.2932,0.4558,0.96,-0.06,0.84
1365,13650,1791070284702,114826,101511,-0.842,-0.2932,0.4578,1.8,0.12,1.04
1366,13660,1791070284702,114849,101527,-0.8335,-0.2917,0.4456,2.21,0.35,1.44
1367,13670,1791070284702,114871,101529,-0.8325,-0.2952,0.447,1.4,-0.81,1.59
1368,13680,1791070284703,114897,101534,-0.8333,-0.2922,0.4507,-0.09,-2.18,1.53
1369,13690,1791070284703,114929,101549,-0.8311,-0.2959,0.4419,-1.71,-3.27,1.08
1370,13700,1791070284703,114943,101550,-0.8193,-0.3008,0.4368,-3.16,-3.94,0.81
1371,13710,1791070284703,114963,101549,-0.8501,-0.2974,0.437,-4.24,0.12,-0.03
1372,13720,1791070284762,114970,101555,-0.8494,-0.3064,0.4426,-5.74,-4.14,0.11
1373,13730,1791070284762,114994,101565,-0.8203,-0.2898,0.4373,-2.87,-4.73,0.67
1374,13740,1791070284762,115001,101566,-0.8225,-0.3113,0.4482,-1.76,-3.16,0.72
1375,13750,1791070284762,115016,101570,-0.8269,-0.3103,0.4399,-0.14,-0.06,0.12
1376,13760,1791070284821,115041,101578,-0.8291,-0.2947,0.4546,-0.02,-0.02,-0.38
1377,13770,1791070284821,115053,101577,-0.8281,-0.2952,0.4604,-0.03,-0.81,-0.38
1378,13780,1791070284821,115059,101587,-0.8325,-0.2966,0.4604,0.14,-1.5,-0.41
1379,13790,1791070284821,115051,101587,-0.8315,-0.2922,0.4626,0.7,-1.18,-0.34
1380,13800,1791070284822,115012,101581,-0.8286,-0.2922,0.4612,0.02,-1.54,-0.46
1381,13810,1791070284822,114935,101555,-0.8423,-0.2949,0.4453,-0.89,-1.21,-0.64
1382,13820,1791070284822,114845,101526,-0.8452,-0.3049,0.4207,-1.8,-2.53,-0.31
1383,13830,1791070284822,114738,101491,-0.8403,-0.3086,0.4368,-3.36,-5.94,0.44
1384,13840,1791070284881,114611,101470,-0.8342,-0.3179,0.4465,-4.37,-7.59,0.92
1385,13850,1791070284881,114489,101421,-0.8298,-0.3149,0.4583,-3.08,-6.78,1.34
1386,13860,1791070284881,114367,101365,-0.8247,-0.3132,0.4534,-0.52,-4.49,1.62
1387,13870,1791070284881,114246,101334,-0.8281,-0.3057,0.4644,2.44,-1.24,2.05
1388,13880,1791070284941,114159,101302,-0.8347,-0.3062,0.4775,5.1,2.85,1.86
1389,13890,1791070284941,114086,101276,-0.8372,-0.2939,0.45,6.79,5.44,1.65
1390,13900,1791070284941,114064,101257,-0.845,-0.2942,0.436,6.93,4.38,2.15
1391,13910,1791070284941,114062,101266,-0.844,-0.2905,0.4424,4.78,0.96,2.32
1392,13920,1791070284942,114081,101266,-0.8423,-0.2905,0.4456,0.95,-1.59,1.53
1393,13930,1791070284942,114104,101269,-0.8396,-0.2964,0.4292,-3.21,-2.73,0.34
1394,13940,1791070284942,114125,101281,-0.8308,-0.2981,0.4402,-6.32,-4.05,-0.26
1395,13950,1791070284942,114150,101289,-0.8298,-0.2957,0.4438,-8.08,-4.23,-0.81
1396,13960,1791070285004,114156,101293,-0.8347,-0.3088,0.4661,-8.79,-4.23,-0.87
1397,13970,1791070285004,114159,101296,-0.8337,-0.3052,0.4844,-5.39,-1.21,-0.81
1398,13980,1791070285004,114166,101299,-0.8357,-0.3123,0.4854,-2.21,0.69,-0.29
1399,13990,1791070285004,114169,101296,-0.8391,-0.3147,0.4873,-0.47,1.97,0.34
1400,14000,1791070285064,114175,101301,-0.8413,-0.3149,0.48,1.44,2.98,0.79
1401,14010,1791070285064,114185,101302,-0.8362,-0.3081,0.4651,2.35,2.87,1.51
1402,14020,1791070285064,114211,101301,-0.8337,-0.3083,0.4451,2.09,1.59,2.14
1403,14030,1791070285064,114228,101309,-0.8298,-0.3047,0.4351,0.9,-0.72,2.95
1404,14040,1791070285064,114250,101315,-0.8269,-0.303,0.428,-0.96,-3.21,3.27
1405,14050,1791070285064,114261,101322,-0.823,-0.3064,0.429,-2.61,-4.37,3.15
1406,14060,1791070285064,114261,101313,-0.8157,-0.3047,0.4341,-2.84,-4.49,3.16
1407,14070,1791070285064,114260,101313,-0.8232,-0.3074,0.4438,-1.59,-2.66,2.27
1408,14080,1791070285122,114257,101315,-0.834,-0.3005,0.4575,-0.12,-0.64,1.79
1409,14090,1791070285122,114260,101309,-0.8228,-0.2957,0.4573,1.68,1.33,1.19
1410,14100,1791070285122,114246,101311,-0.8237,-0.2915,0.4456,3.01,2.84,1.27
1411,14110,1791070285122,114240,101300,-0.8345,-0.2856,0.4561,3.83,2.72,1.66
1412,14120,1791070285181,114225,101287,-0.8286,-0.2874,0.4592,4.66,1.07,2.52
1413,14130,1791070285181,114224,101284,-0.8281,-0.2834,0.4514,4.72,-0.05,2.87
1414,14140,1791070285181,114220,101287,-0.8369,-0.2871,0.4451,2.2,0.5,1.94
1415,14150,1791070285181,114228,101289,-0.8362,-0.2871,0.4419,-1.18,0.02,0.92
1416,14160,1791070285183,114243,101288,-0.8315,-0.2908,0.4309,-2.89,-0.58,0.38
1417,14170,1791070285183,114252,101286,-0.8411,-0.2893,0.4543,-4.24,-0.56,-0.4
1418,14180,1791070285183,114274,101292,-0.8455,-0.2927,0.4385,-5.24,-1.86,-0.98
1419,14190,1791070285183,114310,101306,-0.8459,-0.2915,0.4536,-5.07,-4.09,-0.63
1420,14200,1791070285245,114336,101319,-0.8369,-0.302,0.479,-4.93,-5.1,-0.11
1421,14210,1791070285245,114353,101327,-0.8242,-0.2947,0.4839,-3.95,-1.51,-1.25
1422,14220,1791070285245,114380,101331,-0.8416,-0.3088,0.4783,-0.02,3.16,-0.89
1423,14230,1791070285245,114393,101338,-0.8396,-0.2935,0.469,3.07,4.92,-0.66
1424,14240,1791070285304,114420,101350,-0.8379,-0.2881,0.4824,3.36,3.59,-0.05
1425,14250,1791070285304,114444,101352,-0.8474,-0.29,0.4592,3.1,1.51,0.76
1426,14260,1791070285304,114473,101355,-0.8347,-0.2917,0.4412,1.54,-1.63,1.11
1427,14270,1791070285304,114496,101360,-0.8301,-0.3015,0.4187,-1.56,-3.74,1.37
1428,14280,1791070285305,114514,101366,-0.825,-0.303,0.4075,-4.31,-5.28,1.15
1429,14290,1791070285305,114527,101367,-0.8196,-0.3079,0.4028,-5.45,-6.03,0.85
1430,14300,1791070285305,114536,101369,-0.821,-0.3127,0.4104,-4.82,-6.12,0.98
1431,14310,1791070285305,114555,101374,-0.8208,-0.3057,0.4373,-3.01,-5.44,0.78
1432,14320,1791070285362,114562,101381,-0.8196,-0.2969,0.4595,-1.11,-3.25,0.4
1433,14330,1791070285362,114584,101381,-0.833,-0.291,0.4546,1.04,1.98,-0.87
1434,14340,1791070285362,114606,101384,-0.844,-0.2944,0.4421,1.77,3.68,-1.47
1435,14350,1791070285362,114630,101399,-0.8408,-0.2927,0.4504,0.75,0.5,-1.04
1436,14360,1791070285423,114661,101409,-0.8401,-0.2998,0.4536,-2.41,-2.31,-0.96
1437,14370,1791070285423,114683,101424,-0.8362,-0.3057,0.4558,-5.15,-4.34,-0.85
1438,14380,1791070285423,114706,101433,-0.8218,-0.3135,0.4709,-6.29,-5.25,-0.61
1439,14390,1791070285423,114713,101442,-0.8279,-0.3127,0.4644,-6.82,-3.6,-0.76
1440,14400,1791070285424,114720,101443,-0.8362,-0.3093,0.4661,-6.44,-3.71,-0.21
1441,14410,1791070285424,114711,101442,-0.8259,-0.312,0.469,-3.77,-4.47,0.98
1442,14420,1791070285424,114709,101459,-0.8215,-0.3098,0.4631,0.69,-2.76,1.92
1443,14430,1791070285424,114698,101439,-0.8564,-0.3105,0.4551,7.11,0.53,2.2
1444,14440,1791070285482,114705,101435,-0.824,-0.313,0.4438,9.42,-1.36,3.16
1445,14450,1791070285482,114712,101436,-0.8015,-0.3049,0.4229,9.77,1.34,2.98
1446,14460,1791070285482,114728,101443,-0.8232,-0.2976,0.4053,7.05,3.48,2.2
1447,14470,1791070285482,114772,101454,-0.8325,-0.2896,0.4255,2.52,2.6,1.11
1448,14480,1791070285540,114814,101463,-0.8403,-0.2852,0.4277,-1.1,-1.07,1.15
1449,14490,1791070285540,114843,101476,-0.8264,-0.2983,0.4626,-5.66,-6.46,1.08
1450,14500,1791070285540,114856,101487,-0.8232,-0.3052,0.4717,-7.59,-4.72,-0.06
1451,14510,1791070285540,114863,101483,-0.8347,-0.3035,0.4504,-6.92,-2.32,-0.61
1452,14520,1791070285542,114874,101483,-0.832,-0.3,0.4775,-6.35,-2.34,-0.17
1453,14530,1791070285542,114886,101480,-0.8416,-0.2991,0.467,-4.95,-2.64,0.38
1454,14540,1791070285542,114905,101480,-0.8438,-0.3049,0.4473,-3.28,-3.74,0.79
1455,14550,1791070285542,114927,101490,-0.8176,-0.3005,0.4343,-1.34,-3.95,0.96
1456,14560,1791070285601,114951,101498,-0.8223,-0.3052,0.4236,0.31,-2.05,0.89
1457,14570,1791070285601,114979,101501,-0.8203,-0.3096,0.418,0.56,-2.02,0.85
1458,14580,1791070285601,115010,101515,-0.8108,-0.3022,0.4363,-0.58,-2.7,0.84
1459,14590,1791070285601,115024,101524,-0.8223,-0.2966,0.459,-2.09,-2.7,0.44
1460,14600,1791070285660,115026,101521,-0.8293,-0.3032,0.4539,-4.21,-2.43,-0.23
1461,14610,1791070285660,114987,101506,-0.8311,-0.303,0.4717,-4.09,-1.25,-0.84
1462,14620,1791070285660,114915,101486,-0.8462,-0.3,0.4775,-3.28,0.05,-1.22
1463,14630,1791070285660,114812,101449,-0.8508,-0.3022,0.4812,-3.01,-0.78,-0.95
1464,14640,1791070285662,114690,101408,-0.845,-0.3015,0.4875,-2.43,-2.98,0.24
1465,14650,1791070285662,114555,101361,-0.8335,-0.2988,0.4866,-1.34,-3.27,0.96
1466,14660,1791070285662,114421,101323,-0.8315,-0.2979,0.478,1.1,-1.59,1.18
1467,14670,1791070285662,114292,101278,-0.8286,-0.3005,0.4534,3.91,0.82,1.28
1468,14680,1791070285721,114189,101241,-0.8352,-0.3013,0.4417,5.11,1.98,1.04
1469,14690,1791070285721,114107,101215,-0.8264,-0.2988,0.4282,5.44,1.98,0.87
1470,14700,1791070285721,114055,101190,-0.8228,-0.2988,0.4077,5.71,0.78,1.11
1471,14710,1791070285721,114037,101180,-0.834,-0.2878,0.4504,5.89,-1.42,1.54
1472,14720,1791070285781,114031,101184,-0.845,-0.3044,0.4309,5.28,-4.24,2.08
1473,14730,1791070285781,114032,101182,-0.8076,-0.303,0.4485,4.14,-6.06,2.08
1474,14740,1791070285781,114043,101180,-0.8264,-0.2986,0.4609,1.68,-3.34,0.49
1475,14750,1791070285781,114081,101182,-0.8269,-0.2917,0.4607,-1.1,-3.02,-0.37
1476,14760,1791070285782,114105,101197,-0.8252,-0.2893,0.4792,-2.66,-4.34,-0.27
1477,14770,1791070285782,114139,101207,-0.8228,-0.2886,0.4924,-3.47,-3.34,-0.61
1478,14780,1791070285782,114164,101220,-0.8389,-0.3035,0.4746,-2.47,-1.48,-0.41
1479,14790,1791070285782,114188,101233,-0.8271,-0.3022,0.4541,-0.12,-1.97,0.12
1480,14800,1791070285841,114210,101233,-0.8225,-0.3071,0.4519,1.71,-1.39,0.55
1481,14810,1791070285841,114229,101235,-0.8157,-0.3044,0.4365,3.24,-0.27,0.9
1482,14820,1791070285841,114262,101252,-0.8245,-0.3079,0.4231,3.48,-0.34,1.05
1483,14830,1791070285841,114291,101255,-0.8313,-0.3188,0.4417,1.44,-1.24,1.19
1484,14840,1791070285901,114322,101257,-0.8247,-0.3169,0.4512,-0.37,-1.77,1.45
1485,14850,1791070285901,114345,101261,-0.8274,-0.3152,0.4565,1.59,-1.62,2.29
1486,14860,1791070285901,114362,101269,-0.8276,-0.3081,0.4565,4.26,-2.11,3.28
1487,14870,1791070285901,114387,101273,-0.8284,-0.3083,0.4666,4.47,-1.51,3.15
1488,14880,1791070285902,114405,101274,-0.8291,-0.3022,0.468,4.23,-0.61,2.75
1489,14890,1791070285902,114416,101267,-0.832,-0.2861,0.4744,3.63,-0.9,2.47
1490,14900,1791070285902,114419,101272,-0.8372,-0.2859,0.4822,2.49,-2.47,2.5
1491,14910,1791070285902,114410,101265,-0.8347,-0.2861,0.4917,1.1,-3.79,2.38
1492,14920,1791070285961,114387,101259,-0.8357,-0.2905,0.4753,-0.78,-3.44,1.94
1493,14930,1791070285961,114369,101259,-0.8071,-0.2925,0.4487,-1.36,-2.27,0.43
1494,14940,1791070285961,114353,101255,-0.8193,-0.3,0.429,-1.07,-2.17,1.22
1495,14950,1791070285961,114332,101253,-0.8101,-0.2964,0.4236,-1.44,-2.56,1.21
1496,14960,1791070286020,114319,101257,-0.8079,-0.2849,0.4324,-3.3,-3.86,1.07
1497,14970,1791070286020,114318,101241,-0.8176,-0.2839,0.4348,-4.44,-5.6,0.93
1498,14980,1791070286020,114302,101245,-0.8276,-0.2842,0.4658,-5.53,-7.48,0.69
1499,14990,1791070286020,114298,101249,-0.8247,-0.2849,0.4766,-6.46,-9.6,0.69
1500,15000,1791070286022,114301,101240,-0.8201,-0.2876,0.5034,-7.36,-9.74,0.69
1501,15010,1791070286022,114305,101238,-0.8247,-0.2927,0.5034,-6.69,-8.02,0.41
1502,15020,1791070286022,114326,101247,-0.8196,-0.2976,0.5022,-4.64,-5.83,-0.18
1503,15030,1791070286022,114351,101254,-0.8235,-0.3025,0.4607,-3.08,-4.14,-0.06
1504,15040,1791070286080,114382,101261,-0.8213,-0.304,0.4673,-2.99,-5.63,0.12
1505,15050,1791070286080,114401,101265,-0.8223,-0.3081,0.448,-2.37,-9.19,0.99
1506,15060,1791070286080,114443,101264,-0.8125,-0.2881,0.4714,-2.24,-10.29,0.96
1507,15070,1791070286080,114488,101284,-0.8425,-0.2959,0.4534,-3.45,-9.47,0.14
1508,15080,1791070286141,114522,101284,-0.8342,-0.3008,0.4885,-4.31,-12.66,0.76
1509,15090,1791070286141,114546,101290,-0.8411,-0.3054,0.4673,-4.2,-13.48,0.52
1510,15100,1791070286141,114575,101290,-0.8203,-0.3188,0.4753,-4.58,-10.52,0.58
1511,15110,1791070286141,114598,101292,-0.8267,-0.3167,0.478,-3.51,-6.44,0.08
1512,15120,1791070286142,114628,101299,-0.8208,-0.3096,0.4648,-1.37,-4.79,0.84
1513,15130,1791070286142,114659,101309,-0.8337,-0.3101,0.4753,-1.66,-4.64,1.08
1514,15140,1791070286142,114686,101318,-0.8364,-0.3003,0.4834,-3.73,-6.02,1.07
1515,15150,1791070286142,114721,101323,-0.8291,-0.2998,0.4792,-5.08,-7.36,1.18
1516,15160,1791070286201,114752,101326,-0.8323,-0.2983,0.4863,-5.79,-7.85,1.34
1517,15170,1791070286201,114775,101336,-0.832,-0.2991,0.48,-5.47,-9.24,2.14
1518,15180,1791070286201,114797,101346,-0.8274,-0.3025,0.4854,-5.53,-9.56,2.58
1519,15190,1791070286201,114820,101348,-0.8123,-0.3142,0.4841,-4.92,-7.95,2.93
1520,15200,1791070286261,114836,101361,-0.824,-0.2988,0.4788,-4.0,-5.16,3.16
1521,15210,1791070286261,114855,101363,-0.8311,-0.3103,0.4788,-4.02,-5.3,2.87
1522,15220,1791070286261,114872,101353,-0.8347,-0.2998,0.4734,-4.5,-6.89,3.22
1523,15230,1791070286261,114881,101352,-0.8213,-0.2988,0.4949,-4.72,-9.73,4.18
1524,15240,1791070286321,114891,101352,-0.8152,-0.293,0.4995,-3.56,-9.19,4.38
1525,15250,1791070286321,114888,101349,-0.8157,-0.2952,0.4907,-2.08,-6.03,3.6
1526,15260,1791070286321,114890,101348,-0.8171,-0.2976,0.4812,-1.37,-3.6,2.89
1527,15270,1791070286321,114886,101339,-0.8167,-0.2947,0.4878,-0.5,-5.04,3.77
1528,15280,1791070286323,114884,101333,-0.8074,-0.2859,0.5081,-0.08,-5.02,3.82
1529,15290,1791070286323,114897,101323,-0.8108,-0.291,0.4829,-1.01,-2.98,2.63
1530,15300,1791070286323,114908,101322,-0.8208,-0.2886,0.4746,-3.25,-3.63,2.15
1531,15310,1791070286323,114933,101311,-0.8062,-0.2886,0.4783,-5.82,-5.86,2.23
1532,15320,1791070286382,114950,101314,-0.8103,-0.2915,0.481,-7.33,-6.69,2.03
1533,15330,1791070286382,114972,101320,-0.8015,-0.2959,0.467,-6.52,-6.61,2.21
1534,15340,1791070286382,114984,101318,-0.8035,-0.3032,0.4685,-5.88,-5.5,1.66
1535,15350,1791070286382,115008,101323,-0.8086,-0.2935,0.4734,-3.79,-5.16,1.69
1536,15360,1791070286383,115028,101328,-0.8123,-0.2917,0.4807,-2.23,-5.77,1.5
1537,15370,1791070286383,115041,101324,-0.8137,-0.2937,0.4834,-1.04,-5.8,1.59
1538,15380,1791070286383,115069,101330,-0.8118,-0.2971,0.4795,-0.14,-6.98,2.05
1539,15390,1791070286383,115091,101332,-0.7964,-0.2908,0.4878,0.26,-8.17,2.78
1540,15400,1791070286442,115111,101330,-0.7979,-0.293,0.4976,0.24,-8.02,2.82
1541,15410,1791070286442,115119,101342,-0.8018,-0.2817,0.4971,-0.67,-8.26,2.5
1542,15420,1791070286442,115119,101340,-0.8035,-0.3008,0.5332,-3.73,-8.69,2.21
1543,15430,1791070286442,115084,101324,-0.7866,-0.2798,0.5449,-2.46,-5.16,0.87
1544,15440,1791070286501,115012,101296,-0.8071,-0.3037,0.5098,-0.12,-2.12,-0.2
1545,15450,1791070286501,114912,101263,-0.7742,-0.2859,0.5308,-0.08,0.34,-1.16
1546,15460,1791070286501,114805,101225,-0.8042,-0.3062,0.4934,1.15,5.19,-2.27
1547,15470,1791070286501,114689,101199,-0.8064,-0.2971,0.4805,0.47,4.95,-1.97
1548,15480,1791070286502,114566,101165,-0.7771,-0.3022,0.6194,0.87,3.02,-1.36
1549,15490,1791070286502,114447,101132,-0.8123,-0.3013,0.4512,2.99,-1.16,0.75
1550,15500,1791070286502,114326,101098,-0.8115,-0.3,0.4714,2.82,-6.06,2.67
1551,15510,1791070286502,114219,101058,-0.8186,-0.3005,0.4907,2.0,-7.51,2.52
1552,15520,1791070286562,114123,101028,-0.811,-0.3008,0.4932,0.17,-8.06,2.46
1553,15530,1791070286562,114042,101002,-0.8069,-0.3008,0.5068,-1.31,-9.47,2.76
1554,15540,1791070286562,113992,100984,-0.8025,-0.2964,0.5364,-1.86,-10.79,3.16
1555,15550,1791070286562,113964,100971,-0.7917,-0.3005,0.5376,-0.96,-6.64,1.91
1556,15560,1791070286621,113936,100971,-0.8047,-0.3032,0.5093,-0.73,0.32,0.31
1557,15570,1791070286621,113922,100960,-0.8066,-0.3115,0.4849,-0.76,2.61,-0.75
1558,15580,1791070286621,113926,100958,-0.8013,-0.3032,0.491,-1.3,1.07,-0.32
1559,15590,1791070286621,113929,100962,-0.8079,-0.3081,0.4807,-2.11,-1.05,0.21
1560,15600,1791070286622,113930,100961,-0.8037,-0.3032,0.4861,-1.73,-2.24,0.79
1561,15610,1791070286622,113926,100966,-0.7954,-0.3005,0.478,-0.18,-1.6,1.13
1562,15620,1791070286622,113921,100961,-0.7969,-0.3037,0.4836,1.71,-1.11,1.92
1563,15630,1791070286622,113928,100964,-0.8018,-0.2986,0.4812,3.22,-0.52,2.61
1564,15640,1791070286682,113938,100965,-0.8237,-0.3113,0.5005,2.53,-1.37,2.93
1565,15650,1791070286682,113956,100970,-0.821,-0.2922,0.5042,0.03,-2.24,2.85
1566,15660,1791070286682,113981,100972,-0.8113,-0.3018,0.5251,-2.0,-5.4,2.72
1567,15670,1791070286682,114012,100984,-0.8032,-0.3018,0.5327,-3.89,-1.6,0.99
1568,15680,1791070286802,114033,100994,-0.8049,-0.3081,0.5146,-3.51,1.37,0.09
1569,15690,1791070286802,114032,100984,-0.8027,-0.3003,0.5015,-1.44,2.08,-0.05
1570,15700,1791070286802,114027,100978,-0.8071,-0.3032,0.509,-0.27,0.72,0.53
1571,15710,1791070286802,114019,100975,-0.8042,-0.3022,0.5024,1.01,-0.35,1.18
1572,15720,1791070286802,114003,100971,-0.8047,-0.2961,0.4885,1.82,-1.15,1.3
1573,15730,1791070286802,113973,100963,-0.812,-0.3,0.4707,1.98,-2.37,1.76
1574,15740,1791070286802,113952,100953,-0.8035,-0.2942,0.468,2.72,-4.08,2.18
1575,15750,1791070286802,113922,100953,-0.8052,-0.2935,0.4712,2.26,-5.62,2.72
1576,15760,1791070286803,113888,100938,-0.802,-0.2937,0.4954,1.79,-4.76,2.32
1577,15770,1791070286803,113865,100940,-0.7981,-0.2939,0.5129,0.87,-1.91,1.62
1578,15780,1791070286803,113837,100920,-0.8054,-0.2971,0.5117,1.08,1.19,0.4
1579,15790,1791070286803,113831,100910,-0.8132,-0.2981,0.5066,1.01,1.71,0.05
1580,15800,1791070286862,113817,100922,-0.8176,-0.2952,0.5066,-0.27,1.16,-0.09
1581,15810,1791070286862,113805,100919,-0.8096,-0.3018,0.5049,-2.08,-0.58,-0.03
1582,15820,1791070286862,113810,100913,-0.8042,-0.2976,0.5059,-3.05,-2.06,0.7
1583,15830,1791070286862,113809,100908,-0.8064,-0.2979,0.5205,-3.69,-2.37,0.75
1584,15840,1791070286862,113809,100913,-0.8069,-0.3008,0.5149,-4.37,-2.79,0.61
1585,15850,1791070286862,113816,100919,-0.8044,-0.3003,0.5085,-2.87,-1.69,0.6
1586,15860,1791070286862,113815,100919,-0.7947,-0.2927,0.5125,-0.26,1.89,0.38
1587,15870,1791070286862,113821,100919,-0.8057,-0.2954,0.4971,2.72,5.37,0.32
1588,15880,1791070286921,113842,100924,-0.8086,-0.2905,0.4805,4.75,6.2,0.44
1589,15890,1791070286921,113870,100939,-0.8074,-0.2878,0.4795,4.85,4.38,1.02
1590,15900,1791070286921,113908,100935,-0.8079,-0.2886,0.4854,3.27,1.15,1.71
1591,15910,1791070286921,113960,100941,-0.8152,-0.2913,0.4995,0.64,-0.08,1.42
1592,15920,1791070286981,113994,100964,-0.8135,-0.2932,0.4937,-1.92,0.41,0.55
1593,15930,1791070286981,114019,100977,-0.8018,-0.2893,0.5024,-2.61,0.4,0.23
1594,15940,1791070286981,114051,100970,-0.8074,-0.2913,0.5181,-1.69,-0.09,0.34
1595,15950,1791070286981,114079,100979,-0.8071,-0.2952,0.5054,-0.98,0.05,0.23
1596,15960,1791070286982,114108,100987,-0.8018,-0.2935,0.4939,0.27,-0.14,0.11
1597,15970,1791070286982,114130,101006,-0.8081,-0.2927,0.4968,0.95,-1.33,0.4
1598,15980,1791070286982,114153,101006,-0.8015,-0.2913,0.4888,-0.41,-1.82,0.03
1599,15990,1791070286982,114174,101022,-0.8037,-0.2971,0.4924,-1.53,-1.57,-0.26
1600,16000,1791070287044,114192,101024,-0.8147,-0.3003,0.4998,-2.21,-1.3,-0.44
1601,16010,1791070287044,114200,101030,-0.8079,-0.2983,0.4968,-2.69,-1.15,-0.11
1602,16020,1791070287044,114219,101039,-0.8064,-0.2983,0.4968,-2.06,0.14,-0.09
1603,16030,1791070287044,114224,101045,-0.8081,-0.3022,0.5051,-0.5,1.53,0.21
1604,16040,1791070287103,114242,101045,-0.8096,-0.2983,0.5039,1.51,2.02,0.26
1605,16050,1791070287103,114254,101051,-0.8101,-0.2935,0.5051,2.6,3.22,0.26
1606,16060,1791070287103,114274,101063,-0.8137,-0.2834,0.5271,3.16,3.19,0.43
1607,16070,1791070287103,114273,101066,-0.8083,-0.2874,0.5042,3.3,2.93,0.53
1608,16080,1791070287103,114279,101068,-0.7935,-0.2939,0.4976,2.41,3.3,0.02
1609,16090,1791070287103,114291,101071,-0.8164,-0.2915,0.4885,0.29,5.05,-0.79
1610,16100,1791070287103,114306,101079,-0.8247,-0.2927,0.4717,-2.69,2.53,-0.67
1611,16110,1791070287103,114335,101075,-0.8071,-0.3027,0.4827,-4.7,-1.91,-0.53
1612,16120,1791070287162,114357,101089,-0.7979,-0.2952,0.4873,-5.11,-1.39,-0.53
1613,16130,1791070287162,114379,101105,-0.7917,-0.2947,0.4839,-4.52,1.45,-0.93
1614,16140,1791070287162,114408,101117,-0.7976,-0.3003,0.4634,-3.65,3.48,-1.27
1615,16150,1791070287162,114439,101138,-0.8013,-0.2983,0.4656,-2.49,2.9,-0.93
1616,16160,1791070287222,114475,101135,-0.793,-0.2957,0.4888,0.05,1.19,-0.6
1617,16170,1791070287222,114490,101144,-0.7756,-0.2883,0.4946,2.53,1.18,-0.27
1618,16180,1791070287222,114495,101153,-0.8132,-0.2864,0.4958,1.65,3.25,-0.37
1619,16190,1791070287222,114475,101148,-0.814,-0.2917,0.4966,0.75,1.85,-1.18
1620,16200,1791070287222,114419,101130,-0.8203,-0.2961,0.5022,-1.28,-1.4,0.06
1621,16210,1791070287222,114317,101097,-0.8147,-0.3069,0.5156,-3.21,-2.93,-0.24
1622,16220,1791070287222,114193,101057,-0.8086,-0.3022,0.511,-3.94,-1.57,-0.11
1623,16230,1791070287222,114050,101014,-0.8208,-0.3047,0.5022,-3.63,-0.06,-0.27
1624,16240,1791070287283,113900,100966,-0.813,-0.3044,0.5095,-3.71,-0.17,-0.08
1625,16250,1791070287283,113759,100919,-0.814,-0.3098,0.499,-2.08,0.92,0.06
1626,16260,1791070287283,113631,100886,-0.8174,-0.3098,0.4932,0.18,1.83,0.64
1627,16270,1791070287283,113507,100841,-0.8105,-0.3059,0.4929,2.35,1.45,1.07
1628,16280,1791070287342,113419,100816,-0.8169,-0.2988,0.4927,2.69,-0.24,1.56
1629,16290,1791070287342,113349,100790,-0.8142,-0.3025,0.4888,1.02,-1.42,1.53
1630,16300,1791070287342,113316,100782,-0.8098,-0.2944,0.4839,0.23,-0.38,0.92
1631,16310,1791070287342,113303,100776,-0.8069,-0.3057,0.4817,-0.81,0.44,0.81
1632,16320,1791070287342,113312,100774,-0.8081,-0.304,0.5049,-1.85,2.37,0.81
1633,16330,1791070287342,113341,100778,-0.8069,-0.3059,0.5059,-0.82,8.41,0.18
1634,16340,1791070287342,113401,100801,-0.8223,-0.3008,0.489,1.37,9.24,0.21
1635,16350,1791070287342,113487,100817,-0.8179,-0.2952,0.4854,2.96,6.18,1.13
1636,16360,1791070287401,113586,100839,-0.813,-0.2939,0.48,2.02,3.42,1.5
1637,16370,1791070287401,113669,100873,-0.8042,-0.2952,0.478,1.18,0.17,1.71
1638,16380,1791070287401,113758,100894,-0.8101,-0.2915,0.4719,-0.84,-2.47,1.73
1639,16390,1791070287401,113827,100923,-0.7979,-0.2961,0.4856,-2.32,-3.98,1.42
1640,16400,1791070287461,113887,100947,-0.8044,-0.3054,0.4602,-2.34,-3.85,1.15
1641,16410,1791070287461,113936,100963,-0.8083,-0.3037,0.4824,-2.61,-5.33,1.33
1642,16420,1791070287461,113992,100976,-0.8101,-0.302,0.4849,-1.31,-5.4,1.48
1643,16430,1791070287461,114035,100991,-0.8079,-0.3027,0.501,-0.56,-3.07,1.34
1644,16440,1791070287462,114065,101009,-0.8035,-0.3008,0.5002,0.61,0.61,0.44
1645,16450,1791070287462,114087,101022,-0.8076,-0.2966,0.4983,2.53,4.32,-0.17
1646,16460,1791070287462,114120,101028,-0.8188,-0.2915,0.4897,3.5,5.22,-0.14
1647,16470,1791070287462,114135,101043,-0.8164,-0.29,0.4895,3.45,3.11,0.66
1648,16480,1791070287521,114151,101045,-0.8196,-0.2839,0.4849,2.03,2.15,0.79
1649,16490,1791070287521,114165,101042,-0.8193,-0.2932,0.4871,-0.06,1.68,0.41
1650,16500,1791070287521,114183,101045,-0.8184,-0.2905,0.4893,-1.95,0.08,0.61
1651,16510,1791070287521,114193,101053,-0.823,-0.2983,0.4893,-3.13,-1.79,1.05
1652,16520,1791070287585,114205,101046,-0.825,-0.2976,0.5007,-3.53,-2.34,0.75
1653,16530,1791070287585,114215,101054,-0.8213,-0.3025,0.4919,-4.21,-2.24,0.52
1654,16540,1791070287585,114220,101058,-0.8179,-0.3059,0.4844,-3.79,-2.02,0.4
1655,16550,1791070287585,114229,101064,-0.8108,-0.304,0.4902,-0.9,-0.55,0.67
1656,16560,1791070287586,114243,101069,-0.8208,-0.3018,0.479,2.23,2.08,-0.14
1657,16570,1791070287586,114254,101075,-0.8167,-0.2979,0.4888,3.28,3.98,-0.53
1658,16580,1791070287586,114278,101092,-0.8215,-0.2903,0.4929,2.35,4.93,-0.58
1659,16590,1791070287586,114304,101101,-0.8191,-0.2913,0.4712,1.53,4.11,-0.24
1660,16600,1791070287641,114345,101112,-0.8208,-0.2908,0.4724,0.75,1.24,0.72
1661,16610,1791070287641,114377,101124,-0.8213,-0.2883,0.4763,-1.18,-2.4,1.56
1662,16620,1791070287641,114423,101145,-0.8215,-0.2925,0.479,-3.15,-2.43,1.21
1663,16630,1791070287641,114464,101156,-0.8157,-0.2922,0.4866,-3.89,-2.5,1.07
1664,16640,1791070287701,114512,101171,-0.8101,-0.2961,0.488,-2.69,-1.48,0.69
1665,16650,1791070287701,114536,101179,-0.8118,-0.303,0.4771,-1.22,-0.21,0.66
1666,16660,1791070287701,114585,101192,-0.8083,-0.3047,0.4695,1.1,0.63,0.52
1667,16670,1791070287701,114639,101210,-0.8086,-0.2991,0.4668,2.12,1.65,0.32
1668,16680,1791070287702,114684,101224,-0.8096,-0.3032,0.4609,1.4,1.5,0.31
1669,16690,1791070287702,114720,101238,-0.8135,-0.2974,0.4893,0.18,-0.14,0.64
1670,16700,1791070287702,114765,101249,-0.8162,-0.2959,0.4971,-1.18,-1.15,0.84
1671,16710,1791070287702,114799,101255,-0.8076,-0.2964,0.4966,-0.72,-1.89,1.16
1672,16720,1791070287763,114830,101264,-0.8088,-0.2993,0.5098,0.05,-1.39,1.04
1673,16730,1791070287763,114863,101273,-0.8127,-0.3013,0.4893,0.98,0.81,0.55
1674,16740,1791070287763,114900,101285,-0.8196,-0.3027,0.4736,1.28,2.15,0.05
1675,16750,1791070287763,114939,101298,-0.822,-0.2986,0.458,1.18,0.84,0.41
1676,16760,1791070287823,114969,101319,-0.8147,-0.2891,0.4783,1.37,-0.73,0.99
1677,16770,1791070287823,114989,101333,-0.8101,-0.2869,0.4788,1.39,-1.44,1.34
1678,16780,1791070287823,115019,101327,-0.8064,-0.2908,0.4822,1.65,-2.02,1.25
1679,16790,1791070287823,115040,101335,-0.8103,-0.2888,0.4827,0.82,-1.79,0.99
1680,16800,1791070287823,115049,101353,-0.8081,-0.2935,0.4849,-0.31,-0.95,0.41
1681,16810,1791070287823,115058,101356,-0.8135,-0.2964,0.4771,-1.47,0.58,-0.29
1682,16820,1791070287823,115089,101358,-0.8159,-0.3035,0.4597,-2.93,0.29,-0.82
1683,16830,1791070287823,115120,101375,-0.8218,-0.3008,0.4641,-4.31,-2.69,-0.08
1684,16840,1791070287883,115152,101375,-0.8228,-0.3088,0.5,-5.1,-5.54,0.31
1685,16850,1791070287883,115172,101379,-0.8132,-0.3132,0.4988,-4.35,-4.67,0.17
1686,16860,1791070287883,115195,101383,-0.8181,-0.3101,0.5071,-0.92,-2.7,0.44
1687,16870,1791070287883,115205,101385,-0.8191,-0.304,0.5142,2.5,-1.59,1.22
1688,16880,1791070287941,115190,101390,-0.8157,-0.2964,0.5066,5.01,0.55,1.08
1689,16890,1791070287941,115153,101371,-0.8108,-0.2861,0.5007,5.92,4.53,0.58
1690,16900,1791070287941,115075,101346,-0.8281,-0.2866,0.4685,5.01,5.5,0.37
1691,16910,1791070287941,114978,101312,-0.8242,-0.2849,0.4661,2.7,2.41,1.08
1692,16920,1791070287942,114867,101280,-0.8237,-0.2881,0.4802,-1.68,-1.28,1.5
1693,16930,1791070287942,114746,101243,-0.8196,-0.2949,0.4888,-5.16,-2.15,1.07
1694,16940,1791070287942,114625,101206,-0.8218,-0.3003,0.4912,-6.4,-1.95,0.64
1695,16950,1791070287942,114523,101167,-0.8218,-0.3008,0.4966,-5.01,-1.85,1.07
1696,16960,1791070288001,114443,101139,-0.812,-0.3076,0.4927,-2.05,-0.75,1.18
1697,16970,1791070288001,114378,101123,-0.8105,-0.3103,0.4883,0.72,1.36,1.04
1698,16980,1791070288001,114350,101110,-0.8054,-0.301,0.4648,3.4,3.85,0.43
1699,16990,1791070288001,114353,101112,-0.8154,-0.3005,0.4397,4.44,4.43,0.49
1700,17000,1791070288062,114364,101117,-0.8086,-0.2993,0.4375,4.17,1.62,0.99
1701,17010,1791070288062,114388,101126,-0.8132,-0.2817,0.469,1.89,-1.91,1.42
1702,17020,1791070288062,114422,101132,-0.8059,-0.2935,0.4817,-0.89,-3.21,0.9
1703,17030,1791070288062,114464,101162,-0.8113,-0.2896,0.4885,-3.18,-2.43,0.17
1704,17040,1791070288062,114504,101164,-0.8096,-0.29,0.5012,-5.19,-1.57,-0.38
1705,17050,1791070288062,114537,101188,-0.8132,-0.2856,0.5071,-5.83,-0.84,-0.87
1706,17060,1791070288062,114581,101196,-0.8152,-0.2974,0.5103,-5.01,-0.2,-1.05
1707,17070,1791070288062,114621,101206,-0.8147,-0.2983,0.4922,-3.6,0.46,-0.4
1708,17080,1791070288122,114665,101219,-0.8179,-0.3047,0.4778,-1.94,0.29,0.31
1709,17090,1791070288122,114697,101235,-0.8196,-0.3022,0.4744,-0.31,-0.17,1.11
1710,17100,1791070288122,114738,101246,-0.8132,-0.3081,0.4666,1.48,-1.34,1.85
1711,17110,1791070288122,114784,101254,-0.811,-0.3088,0.4707,3.53,-2.38,2.47
1712,17120,1791070288182,114831,101280,-0.8157,-0.2971,0.4683,5.05,-1.5,2.52
1713,17130,1791070288182,114852,101279,-0.8145,-0.2954,0.469,4.4,-0.95,1.94
1714,17140,1791070288182,114890,101276,-0.823,-0.2864,0.4734,2.67,-1.5,1.63
1715,17150,1791070288182,114914,101301,-0.8247,-0.291,0.478,0.4,-2.14,0.79
1716,17160,1791070288182,114928,101288,-0.8269,-0.2834,0.4932,-1.01,-0.93,-0.15
1717,17170,1791070288182,114934,101290,-0.8313,-0.2866,0.4958,-2.4,0.44,-0.66
1718,17180,1791070288182,114932,101294,-0.8293,-0.2876,0.4915,-3.65,-0.46,-0.85
1719,17190,1791070288182,114921,101289,-0.8223,-0.2888,0.4895,-3.5,-1.57,-0.7
1720,17200,1791070288242,114899,101282,-0.8164,-0.2981,0.4846,-3.92,-2.21,-0.6
1721,17210,1791070288242,114877,101281,-0.8179,-0.2983,0.4783,-3.48,-2.14,-0.46
1722,17220,1791070288242,114849,101276,-0.8191,-0.2949,0.478,-2.89,-2.09,-0.49
1723,17230,1791070288242,114828,101273,-0.8181,-0.3069,0.4639,-3.4,-2.55,-0.18
1724,17240,1791070288301,114814,101266,-0.821,-0.3037,0.47,-3.76,-3.18,-0.12
1725,17250,1791070288301,114807,101270,-0.8088,-0.3052,0.4634,-3.8,-3.8,0.23
1726,17260,1791070288301,114802,101275,-0.8059,-0.3081,0.4797,-2.78,-2.93,0.6
1727,17270,1791070288301,114808,101277,-0.8081,-0.303,0.4951,-0.6,-0.37,0.23
1728,17280,1791070288302,114817,101277,-0.814,-0.2998,0.4963,1.62,2.63,-0.15
1729,17290,1791070288302,114821,101278,-0.8152,-0.2935,0.4973,3.48,3.34,0.34
1730,17300,1791070288302,114832,101298,-0.8137,-0.2915,0.4922,4.35,2.32,1.05
1731,17310,1791070288302,114858,101291,-0.8164,-0.2876,0.4802,3.82,0.53,1.13
1732,17320,1791070288361,114886,101298,-0.8271,-0.293,0.47,0.15,-1.47,1.13
1733,17330,1791070288361,114912,101316,-0.8147,-0.2893,0.4695,-3.25,-2.85,0.56
1734,17340,1791070288361,114943,101330,-0.8096,-0.292,0.4773,-4.84,-4.43,0.56
1735,17350,1791070288361,114968,101334,-0.8135,-0.2939,0.4851,-4.81,-5.18,0.81
1736,17360,1791070288421,114996,101335,-0.8113,-0.2976,0.4924,-3.66,-4.24,1.01
1737,17370,1791070288421,115001,101343,-0.8103,-0.3076,0.4861,-1.05,-1.13,0.58
1738,17380,1791070288421,115020,101351,-0.8169,-0.3,0.4775,1.45,1.19,0.6
1739,17390,1791070288421,115043,101361,-0.814,-0.3025,0.4763,2.09,2.15,0.7
1740,17400,1791070288422,115073,101366,-0.8174,-0.3054,0.467,1.98,1.62,0.72
