t,ppg,ax,ay,az,gx,gy,gz
1730000000000,50074,0.027,-0.9826,0.065,0.0066,-0.0053,-0.0022
1730000000010,50081,0.0212,-0.9751,0.0916,0.0131,0.0022,-0.0074
1730000000020,50089,0.0099,-0.9746,0.0931,0.0008,-0.0021,0.0053
1730000000030,50096,0.0055,-0.9855,0.0849,0.0175,-0.0048,0.0038
1730000000040,50103,0.0225,-0.9634,0.0689,0.0114,-0.0303,-0.0262
1730000000050,50110,0.0139,-0.9971,0.0888,0.0133,-0.0244,0.0085
1730000000060,50116,0.01,-0.9803,0.0771,0.0023,0.0164,0.0064
1730000000070,50123,0.0235,-0.9654,0.0848,-0.0125,-0.0143,-0.0047
1730000000080,50130,0.025,-0.9831,0.1034,-0.0164,-0.022,0.0077
1730000000090,50137,0.0342,-0.9678,0.0884,0.0285,-0.0019,-0.0142
1730000000100,50144,0.0147,-0.9586,0.0656,0.0007,0.0051,-0.0032
1730000000110,50151,0.0272,-0.9658,0.1032,0.0124,-0.0122,-0.0056
1730000000120,50158,0.0117,-0.9581,0.0743,-0.0014,0.015,-0.0072
1730000000130,50164,0.0171,-1.0138,0.0692,-0.0114,0.0083,0.0119
1730000000140,50171,0.0198,-0.9715,0.0817,0.0217,0.0179,0.0027
1730000000150,50178,0.0099,-0.9584,0.0838,0.0245,-0.0006,0.0195
1730000000160,50185,0.0164,-0.9444,0.0812,-0.0103,-0.0226,-0.0015
1730000000170,50191,0.0342,-0.9597,0.0869,-0.0475,0.0142,0.0056
1730000000180,50198,0.0145,-0.9884,0.08,0.0345,-0.0211,-0.0043
1730000000190,50204,0.0336,-0.9845,0.0764,0.002,-0.0248,0.0022
1730000000200,50211,0.0079,-0.9577,0.08,0.0457,0.0056,0.0137
1730000000210,50217,0.007,-0.9776,0.0832,0.0349,-0.0336,0.0099
1730000000220,50224,0.0259,-0.9442,0.0871,0.001,-0.0104,-0.0125
1730000000230,50230,0.022,-0.9785,0.1002,-0.0122,0.0064,-0.0157
1730000000240,50236,0.016,-0.9693,0.0882,0.029,-0.0009,-0.0112
1730000000250,50242,0.0246,-0.9639,0.0849,-0.014,0.0227,0.0009
1730000000260,50249,0.027,-0.9486,0.0861,0.0057,0.0431,0.0024
1730000000270,50255,0.017,-0.9716,0.0948,0.0024,0.0104,0.012
1730000000280,50261,0.0149,-1.0081,0.083,0.0046,-0.0122,0.0087
1730000000290,50267,0.0261,-0.9933,0.0852,-0.0039,-0.0297,0.0045
1730000000300,50273,0.0195,-0.9881,0.0852,0.0098,-0.0116,0.004
1730000000310,50279,0.0302,-0.9872,0.0838,0.0001,0.0453,-0.0186
1730000000320,50285,0.027,-0.9789,0.079,0.038,-0.0002,0.0224
1730000000330,50291,0.0156,-0.9656,0.0751,-0.0138,0.0012,-0.0028
1730000000340,50296,0.022,-1.0145,0.1,-0.0033,0.0349,-0.0101
1730000000350,50302,0.0229,-0.9089,0.0713,-0.0299,-0.0109,0.0047
1730000000360,50308,0.0269,-0.9462,0.0774,-0.032,-0.0087,0.0124
1730000000370,50313,0.0247,-1.0109,0.0796,0.028,0.0425,0.0056
1730000000380,50319,0.0231,-0.9964,0.0716,0.0009,0.0101,0.0058
1730000000390,50324,0.0152,-0.9944,0.0722,-0.0231,0.0129,-0.0231
1730000000400,50330,0.0167,-0.9622,0.0952,0.0014,0.02,-0.004
1730000000410,50335,0.0126,-0.9845,0.0953,0.0199,0.0097,0.0333
1730000000420,50340,0.0197,-0.9584,0.0831,-0.0044,0.0463,0.0151
1730000000430,50345,0.006,-0.9786,0.0843,0.0157,-0.027,-0.0226
1730000000440,50350,0.0009,-0.9719,0.079,0.0069,-0.0154,-0.0122
1730000000450,50355,-0.0002,-0.9637,0.0837,0.0199,0.0158,-0.0019
1730000000460,50360,0.0335,-0.9728,0.0734,-0.0104,-0.0117,-0.0217
1730000000470,50365,0.0216,-0.9649,0.0764,-0.0143,0.0074,0.0172
1730000000480,50370,0.0204,-0.9799,0.0741,-0.0014,-0.0253,-0.0013
1730000000490,50375,0.0206,-0.9327,0.0894,0.0207,-0.0143,0.0067
1730000000500,50379,0.0086,-0.9632,0.0842,-0.0153,0.04,0.0057
1730000000510,50384,0.001,-0.9582,0.0759,0.0,0.0093,0.0039
1730000000520,50388,-0.0004,-0.9922,0.0877,0.026,0.0381,0.018
1730000000530,50393,-0.0006,-0.9535,0.0608,0.0323,0.0051,-0.0114
1730000000540,50397,0.0401,-0.9559,0.0611,0.0059,-0.0146,0.0011
1730000000550,50401,0.0153,-0.9411,0.0658,0.0063,0.0363,-0.0083
1730000000560,50405,0.0221,-0.9644,0.0731,0.013,0.0019,-0.0094
1730000000570,50410,0.0376,-0.9525,0.0783,-0.0127,-0.0157,0.0123
1730000000580,50414,0.0185,-0.959,0.0782,0.0123,-0.0023,0.0076
1730000000590,50417,0.0182,-0.9514,0.0867,-0.0023,-0.0172,-0.0094
1730000000600,50421,0.0126,-0.9876,0.0887,-0.0009,0.0314,0.0228
1730000000610,50425,0.0202,-0.9987,0.0762,-0.0015,-0.0298,-0.0025
1730000000620,50429,0.0229,-0.9768,0.0723,-0.0152,0.0357,-0.0016
1730000000630,50432,0.0117,-0.9749,0.0895,-0.0137,0.0096,0.0073
1730000000640,50436,0.0275,-0.9393,0.0745,0.0227,-0.0159,-0.004
1730000000650,50439,0.032,-0.9508,0.08,-0.0238,0.0112,-0.0063
1730000000660,50442,0.0108,-0.9801,0.0825,-0.0424,0.0072,0.0017
1730000000670,50445,0.0142,-0.9462,0.0861,-0.0121,-0.0134,0.007
1730000000680,50449,0.0048,-0.9735,0.0737,0.0014,0.0042,0.0004
1730000000690,50452,0.0313,-0.9622,0.0769,-0.0242,0.0144,0.0053
1730000000700,50454,0.0345,-0.9816,0.0803,-0.0012,-0.0018,0.0001
1730000000710,50457,0.0029,-0.95,0.0865,0.0226,0.045,-0.0032
1730000000720,50460,0.0196,-0.9662,0.0994,-0.0346,0.0097,-0.0147
1730000000730,50463,-0.0058,-1.0067,0.0662,0.0214,-0.0174,-0.0023
1730000000740,50465,0.0084,-0.954,0.069,0.0264,-0.0199,-0.0076
1730000000750,50468,0.0212,-0.9656,0.0942,0.0024,-0.0242,-0.0056
1730000000760,50470,0.0143,-0.9516,0.0838,-0.0024,0.0174,-0.0053
1730000000770,50472,0.0186,-0.9624,0.0953,-0.002,-0.007,-0.0105
1730000000780,50474,0.0269,-0.9776,0.0834,-0.038,0.0209,-0.0133
1730000000790,50476,0.0122,-0.9446,0.0667,-0.0016,0.0015,-0.01
1730000000800,50478,0.0334,-0.9358,0.0603,-0.029,0.0162,-0.013
1730000000810,50480,0.0161,-0.9631,0.0869,-0.0045,0.0019,-0.0078
1730000000820,50482,0.0329,-0.9755,0.0834,-0.0102,0.0021,-0.0017
1730000000830,50484,0.0184,-0.9858,0.088,0.0283,0.0049,0.0073
1730000000840,50485,0.0284,-0.9469,0.083,0.0042,0.0173,0.0007
1730000000850,50487,0.0103,-0.9649,0.0611,-0.0001,0.0083,0.0124
1730000000860,50488,0.0215,-0.9468,0.08,-0.0205,-0.0282,-0.0097
1730000000870,50489,0.0063,-0.9526,0.0779,0.0114,0.0015,0.0104
1730000000880,50490,0.0306,-0.9782,0.0773,-0.0107,-0.0324,0.0068
1730000000890,50491,0.0319,-0.9654,0.0751,0.0218,-0.0469,0.0018
1730000000900,50492,0.0214,-0.9766,0.0939,0.0194,-0.0052,-0.0009
1730000000910,50493,0.0161,-0.9754,0.0669,0.0276,0.0206,0.008
1730000000920,50494,0.0091,-0.9235,0.0998,0.0038,-0.0181,-0.0087
1730000000930,50495,0.0242,-0.9834,0.0797,0.0218,-0.0301,0.0201
1730000000940,50495,0.0357,-0.9898,0.0659,-0.0057,-0.0206,-0.0026
1730000000950,50496,-0.0058,-0.9696,0.098,-0.0223,-0.0055,-0.0149
1730000000960,50498,0.0264,-0.9695,0.0994,0.0041,-0.0074,0.0055
1730000000970,50503,0.0149,-0.9918,0.083,-0.0035,0.0033,0.0038
1730000000980,50514,0.0149,-0.9566,0.0974,-0.0222,0.0347,-0.0024
1730000000990,50539,0.0123,-0.9165,0.0816,0.0274,0.0164,-0.0168
1730000001000,50588,0.0212,-0.9755,0.0666,-0.0354,0.002,0.0059
1730000001010,50674,0.0239,-0.9711,0.072,-0.0197,-0.0111,-0.0103
1730000001020,50813,0.018,-0.9655,0.071,-0.0046,-0.0152,-0.0
1730000001030,51011,0.0251,-0.9615,0.0847,-0.033,-0.0076,0.0028
1730000001040,51261,0.0264,-0.997,0.0816,0.0241,-0.0036,-0.0009
1730000001050,51533,0.0245,-0.9601,0.0867,0.0014,0.003,-0.0078
1730000001060,51779,0.0183,-0.94,0.078,-0.0034,-0.0098,0.0079
1730000001070,51946,0.0115,-0.9469,0.0706,-0.0212,0.0041,0.0013
1730000001080,51992,0.023,-0.9439,0.0759,0.0089,-0.0182,0.0126
1730000001090,51905,0.0263,-0.9544,0.0819,-0.0157,-0.0065,0.005
1730000001100,51709,0.0198,-0.9627,0.0664,0.0036,-0.0138,-0.0108
1730000001110,51452,0.0185,-1.0024,0.087,0.017,-0.0011,-0.0099
1730000001120,51188,0.0105,-0.9683,0.0558,0.0036,0.0133,-0.0031
1730000001130,50960,0.0151,-0.9617,0.0835,0.0219,0.0004,-0.0069
1730000001140,50794,0.0154,-0.9617,0.0956,-0.0064,-0.0211,-0.0087
1730000001150,50691,-0.001,-0.9588,0.0664,-0.0247,-0.0395,-0.0112
1730000001160,50643,0.0257,-0.9917,0.0625,0.0036,-0.0068,0.0043
1730000001170,50635,0.0274,-0.9657,0.067,-0.0025,0.01,-0.0058
1730000001180,50654,0.0056,-0.9435,0.0758,-0.0082,0.0003,0.0103
1730000001190,50687,0.0226,-0.9723,0.0868,0.0429,0.0278,0.0067
1730000001200,50727,0.0088,-0.8907,0.068,-0.0074,-0.014,0.0163
1730000001210,50767,0.0242,-0.9944,0.0827,0.0109,-0.0064,-0.0122
1730000001220,50802,0.0127,-0.9746,0.0802,-0.0104,0.0147,-0.0095
1730000001230,50826,0.0027,-0.9808,0.0935,-0.0115,0.0468,0.0049
1730000001240,50837,0.0084,-0.9827,0.0824,-0.0236,0.0475,-0.0099
1730000001250,50834,0.0268,-0.9369,0.0789,-0.0199,-0.0055,0.0036
1730000001260,50815,0.0288,-0.9651,0.066,0.0008,-0.0135,-0.0218
1730000001270,50784,0.013,-0.995,0.0859,0.0389,0.0372,-0.0057
1730000001280,50742,0.0153,-0.9527,0.0906,-0.0084,-0.0029,0.0221
1730000001290,50696,0.0189,-0.9762,0.0812,0.0116,-0.0204,-0.0025
1730000001300,50647,0.0083,-0.9722,0.0988,0.0148,-0.0019,-0.0093
1730000001310,50600,0.0169,-0.9457,0.0744,0.029,-0.0275,-0.0029
1730000001320,50558,0.0374,-1.007,0.0919,-0.037,-0.0018,-0.0017
1730000001330,50522,0.0282,-1.0301,0.0608,-0.0113,0.0007,-0.0089
1730000001340,50493,0.0178,-0.9908,0.076,-0.0169,0.0049,0.0058
1730000001350,50469,0.0343,-0.9803,0.0768,0.001,-0.0059,-0.0005
1730000001360,50452,0.0044,-0.9599,0.0708,-0.0191,-0.0318,0.0116
1730000001370,50438,0.0186,-0.9445,0.0827,-0.0341,-0.0217,0.0076
1730000001380,50428,0.0123,-0.9894,0.0782,-0.0035,-0.0202,-0.0033
1730000001390,50420,0.0152,-1.0195,0.085,-0.0162,0.0261,-0.0115
1730000001400,50414,0.0042,-0.9441,0.0641,-0.0127,0.0119,-0.0033
1730000001410,50409,0.0034,-0.9642,0.0781,0.0257,0.0118,0.0304
1730000001420,50404,0.0035,-0.9686,0.0693,0.0231,0.0164,0.0075
1730000001430,50399,0.0122,-0.9832,0.0597,0.0342,0.0102,-0.0026
1730000001440,50395,0.0293,-0.9534,0.0898,-0.0325,-0.0143,0.002
1730000001450,50390,0.0236,-0.9494,0.0699,0.0025,0.0441,0.0069
1730000001460,50386,0.0287,-0.9691,0.0877,0.0361,0.0021,0.0122
1730000001470,50381,0.0112,-0.9571,0.089,-0.015,0.022,-0.0068
1730000001480,50377,0.0119,-0.9691,0.0993,0.0062,0.0187,-0.0073
1730000001490,50372,0.0208,-0.9928,0.0743,0.0167,-0.0008,0.0145
1730000001500,50367,0.018,-0.9734,0.0928,-0.013,-0.0304,0.013
1730000001510,50363,0.0241,-1.0129,0.0804,-0.0081,0.0349,-0.0073
1730000001520,50358,0.0142,-0.9879,0.0695,-0.014,-0.0287,-0.0103
1730000001530,50353,0.0039,-0.9999,0.0644,-0.0104,-0.0137,-0.0123
1730000001540,50348,0.0248,-0.971,0.0757,-0.0093,0.0319,0.0024
1730000001550,50342,0.0248,-1.022,0.0735,-0.0434,-0.0085,0.0037
1730000001560,50337,0.0133,-0.9601,0.0698,0.0115,-0.0311,-0.0026
1730000001570,50332,0.0242,-0.9599,0.0787,0.0388,-0.0083,-0.0045
1730000001580,50327,-0.0076,-0.9354,0.0763,-0.0235,0.0264,0.0124
1730000001590,50321,0.0211,-0.9997,0.0842,-0.0124,-0.0234,0.0104
1730000001600,50316,-0.0013,-0.9598,0.0846,0.041,0.0065,-0.0206
1730000001610,50310,0.0116,-0.9701,0.0836,0.0196,-0.0392,-0.0033
1730000001620,50305,0.0297,-0.9407,0.0986,-0.0078,0.022,0.0171
1730000001630,50299,0.032,-0.9573,0.0883,-0.0158,-0.0289,0.0098
1730000001640,50293,0.0165,-0.9725,0.0742,-0.0079,0.0047,-0.0102
1730000001650,50287,0.0207,-0.9672,0.0792,-0.0149,0.0157,0.0187
1730000001660,50282,0.014,-0.9477,0.0889,-0.0531,-0.0152,-0.0064
1730000001670,50276,0.0278,-0.9688,0.0847,0.0127,-0.018,-0.0075
1730000001680,50270,0.0078,-0.9762,0.0788,0.0034,-0.0145,0.0091
1730000001690,50264,0.0292,-0.9421,0.0871,0.0037,0.0134,0.0061
1730000001700,50258,0.0135,-0.9474,0.0972,0.0395,0.0007,0.0032
1730000001710,50252,0.0242,-0.9735,0.0862,-0.0024,-0.0039,0.0176
1730000001720,50245,0.0216,-0.9723,0.0888,0.003,0.0058,-0.0006
1730000001730,50239,0.0078,-0.9744,0.0686,0.0042,-0.0236,0.0092
1730000001740,50233,0.0275,-0.9684,0.079,0.0083,-0.0393,-0.011
1730000001750,50226,0.0185,-0.9674,0.0792,-0.0201,0.0027,-0.0045
1730000001760,50220,0.0093,-0.9679,0.0779,0.0239,0.0133,0.0073
1730000001770,50214,0.0232,-0.9916,0.0706,-0.0294,0.0576,-0.0108
1730000001780,50208,0.0179,-0.9821,0.0772,-0.0117,-0.0374,-0.01
1730000001790,50203,0.0061,-0.9777,0.0732,-0.0137,0.0043,-0.0058
1730000001800,50202,0.0293,-0.9831,0.0823,-0.0265,0.0131,-0.0041
1730000001810,50207,0.0241,-0.969,0.0783,0.0043,-0.0077,0.0135
1730000001820,50226,0.0293,-0.9662,0.0682,-0.022,-0.0133,-0.0025
1730000001830,50270,0.0245,-0.994,0.0918,0.0001,-0.0403,-0.0048
1730000001840,50353,-0.0059,-0.9913,0.0745,-0.0122,-0.0065,-0.0039
1730000001850,50489,0.0141,-0.9464,0.0921,-0.0228,0.0251,-0.0162
1730000001860,50684,0.0119,-0.9462,0.0576,0.0115,-0.0251,-0.0014
1730000001870,50930,0.0182,-0.943,0.0719,-0.0014,0.0125,-0.0025
1730000001880,51195,0.0118,-0.9784,0.0809,0.0177,-0.0189,-0.0045
1730000001890,51431,0.0232,-0.9808,0.0781,-0.0003,-0.0139,-0.008
1730000001900,51586,0.0244,-0.9996,0.0917,0.0043,-0.0255,0.0028
1730000001910,51618,0.0217,-0.9626,0.0916,-0.0073,-0.0142,-0.0061
1730000001920,51520,0.0102,-0.993,0.0828,0.0003,-0.0098,-0.0074
1730000001930,51314,0.0235,-0.9884,0.0696,-0.003,-0.0053,-0.0107
1730000001940,51050,0.0283,-0.9617,0.0804,0.0026,0.0105,-0.0003
1730000001950,50781,0.0289,-0.9457,0.0808,0.0088,0.0175,-0.0034
1730000001960,50551,0.0087,-0.9609,0.0643,0.0358,0.0174,0.0019
1730000001970,50382,0.0205,-0.9443,0.0705,-0.0232,-0.012,-0.0026
1730000001980,50276,0.0099,-0.9765,0.0814,-0.0163,0.0321,-0.0139
1730000001990,50225,0.0072,-0.9722,0.0779,0.0084,-0.0124,-0.0103
1730000002000,50213,0.0135,-0.9937,0.0852,-0.0096,0.0152,0.0059
1730000002010,50227,0.0304,-0.9622,0.0878,0.0154,-0.0103,-0.0026
1730000002020,50256,0.0017,-0.9746,0.0733,0.008,0.0105,-0.0135
1730000002030,50291,0.0099,-0.9877,0.0748,0.0033,-0.0231,0.0005
1730000002040,50325,0.0031,-1.024,0.0872,-0.0261,-0.0112,-0.0142
1730000002050,50355,0.0059,-0.9892,0.0759,0.0197,0.009,-0.0026
1730000002060,50374,0.0276,-0.9591,0.0841,-0.0081,0.0204,0.0177
1730000002070,50380,0.0266,-0.9462,0.0893,0.017,-0.0218,-0.0111
1730000002080,50372,0.0195,-1.0153,0.0741,0.0173,-0.0133,0.0053
1730000002090,50348,0.0065,-0.992,0.0902,0.0042,0.0058,0.017
1730000002100,50312,0.033,-0.9999,0.0932,-0.0123,-0.0004,0.0002
1730000002110,50267,0.0307,-1.0052,0.0845,0.0105,0.0162,-0.0021
1730000002120,50216,0.03,-0.997,0.0915,0.007,-0.028,0.0041
1730000002130,50163,0.0218,-0.9902,0.0726,-0.0048,-0.0288,0.0169
1730000002140,50112,0.0087,-0.9965,0.0914,0.0117,0.0144,0.0152
1730000002150,50066,0.0169,-1.0044,0.0884,0.0159,-0.0065,-0.0127
1730000002160,50027,0.0324,-0.9722,0.0663,0.0156,-0.0288,-0.0048
1730000002170,49994,0.0088,-0.9967,0.0717,-0.0123,0.0145,0.0029
1730000002180,49967,0.0263,-0.9623,0.0763,0.0016,0.0108,0.0171
1730000002190,49946,0.029,-0.9568,0.0902,0.0211,-0.0357,0.0088
1730000002200,49929,0.0221,-0.9836,0.0747,-0.0085,0.0083,0.0084
1730000002210,49916,0.005,-0.9805,0.0744,-0.019,0.0079,-0.0033
1730000002220,49905,0.0134,-1.0005,0.0828,-0.0002,-0.0218,-0.0084
1730000002230,49895,0.0182,-0.9772,0.0695,0.0098,-0.0165,0.0273
1730000002240,49887,0.0106,-1.0013,0.0819,-0.018,0.0166,0.018
1730000002250,49879,0.0161,-0.9823,0.0748,-0.0,0.0286,0.0089
1730000002260,49872,0.011,-0.955,0.0916,0.0097,-0.0132,0.0007
1730000002270,49865,0.012,-0.9768,0.0768,-0.0447,0.0185,0.0019
1730000002280,49858,0.0308,-0.9891,0.0819,0.0223,0.0078,0.0029
1730000002290,49851,0.0521,-0.99,0.0817,0.0347,-0.0161,-0.0104
1730000002300,49844,0.0057,-0.9761,0.0863,0.0148,-0.0271,0.0101
1730000002310,49837,0.032,-0.989,0.0803,0.0135,0.0073,0.0064
1730000002320,49831,0.0091,-0.9907,0.0679,0.0126,0.0106,-0.001
1730000002330,49824,0.023,-1.0186,0.0886,-0.0093,0.0026,0.0112
1730000002340,49817,0.0124,-0.9637,0.0812,0.0006,0.0111,-0.0125
1730000002350,49811,0.0259,-0.9866,0.0904,-0.0043,-0.0073,0.0037
1730000002360,49804,0.0194,-1.0115,0.0781,0.0254,-0.0019,-0.0087
1730000002370,49797,0.0272,-1.0253,0.0588,-0.0001,0.0036,0.0022
1730000002380,49791,0.0111,-0.9914,0.066,0.0044,-0.0323,-0.0015
1730000002390,49784,0.0226,-1.0238,0.0748,0.0158,0.031,-0.015
1730000002400,49778,0.0234,-1.0135,0.0665,0.0319,0.0134,-0.008
1730000002410,49771,0.0222,-0.9762,0.0818,0.0449,0.0121,-0.0299
1730000002420,49765,0.0171,-1.0039,0.078,0.0003,-0.013,-0.0108
1730000002430,49759,0.0336,-0.9774,0.0733,0.0136,0.0135,0.0127
1730000002440,49752,0.0094,-0.974,0.0739,0.0231,-0.0038,-0.0227
1730000002450,49746,0.0204,-1.0254,0.0778,-0.0012,-0.008,-0.0149
1730000002460,49740,0.0088,-1.0068,0.0775,0.0258,0.0142,-0.0047
1730000002470,49734,0.0327,-1.0175,0.0869,-0.0035,0.0047,0.0064
1730000002480,49728,0.0132,-0.9742,0.0799,0.0482,-0.0061,0.0127
1730000002490,49722,0.0265,-1.0139,0.0936,-0.0212,-0.0446,0.0085
1730000002500,49716,0.0307,-0.9896,0.0774,0.0317,0.0142,-0.0066
1730000002510,49710,0.0273,-1.0156,0.0744,-0.021,-0.044,-0.0118
1730000002520,49704,0.0322,-1.0129,0.0745,-0.0232,0.0173,0.0
1730000002530,49698,0.0249,-0.9932,0.0683,-0.0195,0.0167,-0.0006
1730000002540,49693,0.0277,-1.0545,0.0911,-0.0099,0.0435,-0.0051
1730000002550,49687,0.0203,-0.9782,0.0712,0.0175,-0.0129,0.0129
1730000002560,49681,0.0279,-0.9816,0.0728,-0.0042,0.006,-0.0203
1730000002570,49676,0.0145,-0.9729,0.0673,0.0256,-0.0126,0.0032
1730000002580,49670,0.0085,-0.9822,0.0846,0.0227,0.0271,0.0125
1730000002590,49665,0.0221,-1.0165,0.0932,-0.0261,-0.0088,0.0074
1730000002600,49660,0.0244,-0.9603,0.08,-0.0338,-0.0055,0.0017
1730000002610,49655,0.0165,-0.964,0.0775,-0.0287,0.0093,-0.0115
1730000002620,49651,0.037,-0.987,0.066,0.0216,0.0474,-0.02
1730000002630,49649,0.029,-0.9829,0.0818,0.0069,0.0098,-0.0069
1730000002640,49652,0.0341,-1.0197,0.0996,0.0306,-0.0237,-0.0001
1730000002650,49666,0.0342,-1.0026,0.0784,-0.008,0.0233,-0.0061
1730000002660,49698,0.0199,-0.9821,0.0779,-0.0173,-0.0268,-0.0152
1730000002670,49760,0.0082,-1.0274,0.0727,0.006,0.0011,-0.0083
1730000002680,49868,0.0098,-1.013,0.0661,-0.0247,0.0143,-0.014
1730000002690,50030,0.0202,-1.0056,0.1043,-0.0359,0.0039,-0.0033
1730000002700,50247,0.0123,-0.9871,0.0816,-0.0214,0.0085,0.0039
1730000002710,50502,0.0331,-1.0057,0.0947,-0.0039,-0.0395,0.0052
1730000002720,50758,0.0192,-1.0112,0.0893,-0.0094,0.0203,-0.0008
1730000002730,50966,0.0275,-0.9801,0.0847,-0.0206,0.0184,0.0002
1730000002740,51080,0.04,-0.9842,0.0875,-0.0153,-0.0081,0.001
1730000002750,51072,0.0083,-1.0173,0.0789,-0.0016,0.004,0.0112
1730000002760,50942,0.016,-0.9803,0.0786,-0.0039,0.0051,-0.0207
1730000002770,50722,0.0207,-1.0068,0.0707,-0.0377,-0.0089,-0.0188
1730000002780,50460,0.0287,-0.9989,0.0632,-0.0135,0.0151,-0.0059
1730000002790,50207,0.0172,-1.0016,0.0787,-0.034,-0.0009,-0.0056
1730000002800,49997,0.0495,-0.9985,0.0754,0.0198,-0.0031,0.0025
1730000002810,49847,0.0113,-0.9632,0.0737,0.0075,0.0226,-0.003
1730000002820,49757,0.02,-0.9827,0.0868,-0.0218,0.0036,-0.0095
1730000002830,49717,0.0125,-1.0074,0.0922,0.0319,0.0521,-0.0006
1730000002840,49713,0.0116,-1.0139,0.0961,-0.0308,-0.0063,-0.0057
1730000002850,49732,0.0375,-1.0149,0.091,0.0263,-0.0033,0.0047
1730000002860,49764,0.0046,-0.9964,0.0778,-0.0516,0.0083,0.0036
1730000002870,49802,0.0031,-1.0229,0.0725,-0.0106,-0.0061,-0.0096
1730000002880,49840,0.0099,-0.9886,0.0752,-0.0021,-0.0046,0.0046
1730000002890,49873,0.0185,-0.9775,0.081,0.0178,0.0249,-0.0146
1730000002900,49896,0.0292,-0.9592,0.0703,-0.0006,-0.0071,0.0044
1730000002910,49907,0.0252,-1.0082,0.0931,-0.0171,-0.0028,0.0102
1730000002920,49904,0.0395,-1.0051,0.0878,0.0044,-0.0316,-0.0096
1730000002930,49887,0.008,-1.005,0.0758,0.0006,0.0256,0.0042
1730000002940,49858,0.0465,-0.9998,0.0879,0.0083,0.0301,-0.0038
1730000002950,49819,0.0285,-0.9624,0.0728,-0.0015,0.0101,-0.0043
1730000002960,49774,0.0112,-0.9583,0.0777,0.0347,-0.0102,-0.0021
1730000002970,49728,0.028,-0.9991,0.071,-0.0144,0.0055,-0.0067
1730000002980,49682,0.0209,-1.0401,0.0744,-0.0036,-0.0103,-0.0099
1730000002990,49641,0.0112,-0.9936,0.0949,-0.028,-0.0055,0.0098
1730000003000,49606,0.0233,-0.9969,0.0755,0.0003,-0.002,-0.0219
1730000003010,49577,0.0128,-1.034,0.0929,0.0165,-0.0158,0.008
1730000003020,49554,0.0445,-1.0075,0.093,0.0073,-0.0047,-0.0111
1730000003030,49537,0.0144,-1.0029,0.0568,0.0106,-0.0064,0.0046
1730000003040,49525,0.0158,-0.935,0.0634,-0.0187,0.0141,0.0236
1730000003050,49516,0.0101,-0.9584,0.0708,0.0259,0.0015,0.0223
1730000003060,49510,0.0378,-1.0079,0.1094,-0.0225,-0.0063,0.0181
1730000003070,49506,0.0127,-1.0077,0.0813,0.009,0.0077,-0.0075
1730000003080,49503,0.022,-0.9821,0.095,0.0066,-0.0251,0.0003
1730000003090,49501,0.0138,-0.9685,0.0632,0.0112,-0.0213,0.0127
1730000003100,49500,0.0277,-0.9904,0.085,-0.0067,0.0135,-0.0005
1730000003110,49499,0.0273,-0.9936,0.0552,-0.0103,0.0303,0.0145
1730000003120,49498,0.021,-0.9973,0.0766,0.0126,0.0116,-0.0098
1730000003130,49498,0.0266,-0.97,0.0705,-0.0037,0.0093,0.0072
1730000003140,49497,0.0158,-1.0052,0.0754,0.0077,0.0086,-0.0002
1730000003150,49497,0.0064,-1.0164,0.0864,-0.0244,0.0045,-0.0036
1730000003160,49496,0.014,-0.994,0.0968,0.0058,-0.0059,-0.0147
1730000003170,49496,0.0251,-0.9717,0.0861,0.0233,0.0095,-0.013
1730000003180,49496,0.0196,-0.9839,0.0872,-0.0099,-0.0013,0.0037
1730000003190,49496,0.0327,-0.9742,0.0865,0.0079,-0.0205,-0.011
1730000003200,49496,0.0191,-0.9734,0.084,0.0112,-0.03,-0.0146
1730000003210,49497,0.0312,-0.9949,0.0669,0.0176,0.0052,0.0295
1730000003220,49497,0.0325,-0.9872,0.0785,0.0046,-0.0021,-0.0144
1730000003230,49497,0.0293,-0.9885,0.0525,-0.0127,-0.0166,0.0098
1730000003240,49498,0.0196,-0.9642,0.0641,-0.0215,0.0213,-0.0066
1730000003250,49499,0.0094,-1.0044,0.0724,0.0108,0.0224,-0.0159
1730000003260,49499,0.0171,-0.9935,0.0808,0.0167,0.0024,-0.0058
1730000003270,49500,0.0089,-1.0302,0.0763,0.0003,0.0184,-0.0038
1730000003280,49501,0.0432,-0.9951,0.0752,0.0076,-0.0194,0.0021
1730000003290,49502,-0.0006,-0.9799,0.0807,0.0042,0.0031,-0.0127
1730000003300,49503,0.011,-0.962,0.0849,-0.0119,0.0084,0.0041
1730000003310,49505,0.0395,-0.971,0.0841,-0.009,0.0357,-0.001
1730000003320,49506,0.0113,-1.0175,0.0714,-0.0073,0.0153,0.0091
1730000003330,49507,0.0315,-0.99,0.0883,0.0452,0.0182,0.016
1730000003340,49509,0.0049,-1.0077,0.0725,-0.0535,0.0015,0.0139
1730000003350,49511,0.0146,-0.9889,0.0715,-0.0098,0.0057,-0.012
1730000003360,49512,0.0317,-1.031,0.0832,-0.0098,0.0298,0.0076
1730000003370,49514,-0.0008,-1.041,0.07,-0.01,-0.0038,0.0003
1730000003380,49516,0.0267,-1.0197,0.062,0.005,-0.0072,-0.001
1730000003390,49518,0.0136,-0.9957,0.0949,-0.0325,-0.0245,0.0064
1730000003400,49520,0.0357,-0.9962,0.0674,-0.04,0.0052,-0.0125
1730000003410,49523,0.0418,-0.9452,0.0823,0.0097,-0.0024,0.0114
1730000003420,49525,0.02,-0.9906,0.0936,0.0125,0.0426,-0.0164
1730000003430,49528,0.0144,-1.0098,0.0884,-0.0099,0.012,-0.0117
1730000003440,49530,0.0191,-0.9456,0.0964,-0.0376,0.0073,0.0083
1730000003450,49533,0.0151,-1.0135,0.0866,0.002,0.0111,-0.0016
1730000003460,49536,0.0433,-1.0095,0.075,0.0103,0.0146,-0.0138
1730000003470,49541,0.033,-1.0203,0.0801,-0.0061,-0.0142,0.0113
1730000003480,49548,-0.0035,-1.0056,0.071,0.0175,0.031,0.0078
1730000003490,49561,0.034,-1.0353,0.0816,-0.0277,-0.0075,0.0024
1730000003500,49588,0.0209,-0.9631,0.0602,-0.0167,-0.0296,-0.0164
1730000003510,49638,0.0301,-0.9868,0.0956,0.0237,0.0014,-0.0097
1730000003520,49725,0.0299,-1.0041,0.068,-0.023,0.0024,0.0127
1730000003530,49863,0.0205,-0.9656,0.0809,-0.0085,0.0544,0.0182
1730000003540,50061,0.022,-1.0066,0.0639,0.008,-0.0051,0.0047
1730000003550,50311,0.0232,-0.981,0.0914,0.0063,-0.0145,-0.0077
1730000003560,50587,0.0258,-1.011,0.0872,0.0143,-0.0009,-0.0078
1730000003570,50841,0.0022,-1.0119,0.0637,0.0005,-0.0088,-0.0092
1730000003580,51019,0.0287,-0.9866,0.0805,0.0112,0.0207,-0.016
1730000003590,51080,0.0271,-1.0252,0.0721,0.0202,0.0138,0.0066
1730000003600,51009,0.0218,-0.9606,0.0646,-0.0061,0.0009,0.0204
1730000003610,50826,0.0303,-0.9679,0.0724,0.045,0.0094,-0.0101
1730000003620,50577,0.0435,-1.017,0.0713,-0.0047,-0.0196,0.0053
1730000003630,50317,0.0228,-0.986,0.0989,-0.0327,0.0273,-0.0082
1730000003640,50092,0.0346,-0.9499,0.103,-0.0038,-0.0233,0.0033
1730000003650,49926,0.0195,-1.0231,0.0874,-0.0185,0.0288,0.0097
1730000003660,49824,0.0172,-0.9869,0.0776,-0.0091,0.062,-0.0094
1730000003670,49778,0.0206,-0.9676,0.0762,-0.0126,-0.0266,0.0119
1730000003680,49774,0.0271,-0.9778,0.0649,0.0101,0.0057,-0.0034
1730000003690,49797,0.0062,-0.9882,0.0713,0.0016,0.0013,-0.0034
1730000003700,49836,0.0288,-0.9881,0.0853,0.0084,0.0202,-0.0096
1730000003710,49883,0.0165,-0.9682,0.0815,0.0225,0.0149,-0.0044
1730000003720,49930,0.0288,-0.9915,0.0896,0.0371,0.0218,0.0229
1730000003730,49973,0.0045,-0.9971,0.0773,-0.008,0.0074,-0.0037
1730000003740,50006,0.0311,-0.9663,0.0841,-0.0202,0.0109,0.0067
1730000003750,50026,0.0235,-0.9851,0.094,-0.011,-0.0073,0.0067
1730000003760,50031,0.0253,-0.9685,0.0772,-0.0263,-0.0248,-0.0043
1730000003770,50022,0.0279,-0.9695,0.0618,0.0107,-0.0017,-0.0104
1730000003780,50000,0.0419,-0.9798,0.0883,0.0514,-0.0116,-0.004
1730000003790,49968,0.0349,-1.011,0.0807,0.0009,0.0194,0.0041
1730000003800,49930,0.0109,-0.9652,0.0885,-0.021,-0.0138,-0.0053
1730000003810,49890,0.0085,-0.9631,0.0768,-0.0056,-0.0208,-0.0039
1730000003820,49852,0.0348,-0.9692,0.0638,-0.0198,0.0127,-0.005
1730000003830,49818,0.0145,-1.0012,0.0667,0.0019,-0.0076,0.0114
1730000003840,49791,0.0193,-1.003,0.0869,0.0269,-0.0147,-0.017
1730000003850,49770,0.0152,-1.0105,0.0964,-0.0278,-0.0066,0.0147
1730000003860,49755,0.0287,-0.9935,0.0722,-0.0036,-0.0048,0.015
1730000003870,49747,0.0185,-1.01,0.0899,0.0207,-0.0045,0.0077
1730000003880,49742,0.0205,-1.0069,0.0792,-0.0229,-0.0127,-0.0094
1730000003890,49742,0.0233,-0.9788,0.0668,-0.0184,-0.0001,0.0046
1730000003900,49744,0.0207,-1.0265,0.0929,0.0354,0.0317,0.0054
1730000003910,49747,0.0267,-0.9952,0.0819,-0.0226,0.0024,-0.0143
1730000003920,49752,0.0259,-0.989,0.0877,0.0037,-0.0092,0.0084
1730000003930,49758,0.0083,-0.9869,0.0746,0.0149,-0.0015,0.0027
1730000003940,49764,0.0253,-1.0283,0.0707,0.0023,0.0202,0.0057
1730000003950,49770,0.0331,-0.9856,0.081,-0.01,-0.0087,-0.0083
1730000003960,49776,0.0146,-0.9848,0.0735,0.0005,-0.0364,0.0043
1730000003970,49782,0.0218,-0.9718,0.0754,-0.0102,0.0196,-0.0015
1730000003980,49789,0.0399,-1.0086,0.0775,-0.0225,-0.0157,-0.0079
1730000003990,49795,0.0152,-0.9646,0.0686,0.0122,-0.0288,-0.0041
1730000004000,49802,0.0332,-0.9708,0.0827,0.0126,0.0115,0.0063
1730000004010,49809,0.034,-1.0005,0.0793,0.0127,0.015,0.0056
1730000004020,49815,0.0331,-0.9895,0.0665,0.0254,-0.0,-0.0055
1730000004030,49822,0.0204,-0.9879,0.0901,0.0178,0.0062,0.0054
1730000004040,49829,0.0203,-0.9585,0.0564,-0.0234,-0.0008,-0.0041
1730000004050,49836,0.0105,-0.9664,0.0702,0.0043,0.0025,0.0006
1730000004060,49842,0.0117,-0.9825,0.0923,0.0109,0.0193,-0.0008
1730000004070,49849,0.003,-0.9877,0.0785,0.026,0.0227,0.0042
1730000004080,49856,0.0114,-0.9756,0.0774,-0.0049,-0.0247,0.0046
1730000004090,49863,0.0197,-0.9618,0.0654,-0.0225,0.0729,-0.0088
1730000004100,49870,0.0229,-0.9689,0.0702,0.0346,-0.0013,0.0015
1730000004110,49877,0.0382,-0.9932,0.0751,-0.0069,-0.0275,0.0028
1730000004120,49884,0.0247,-0.9735,0.0866,0.0173,0.0068,-0.0024
1730000004130,49891,0.0322,-0.9909,0.094,-0.0039,0.0153,0.0183
1730000004140,49898,-0.0026,-0.9806,0.076,0.0341,-0.0081,0.0273
1730000004150,49905,0.0047,-0.9695,0.0761,0.0101,-0.0113,-0.0045
1730000004160,49912,0.0018,-0.9741,0.065,-0.0262,0.0017,-0.0012
1730000004170,49919,0.0303,-1.0031,0.0842,0.0065,-0.006,-0.008
1730000004180,49926,0.0192,-0.9581,0.0763,0.0169,-0.0055,0.0172
1730000004190,49933,0.0203,-0.9791,0.0639,-0.0285,0.0076,-0.0023
1730000004200,49940,0.0228,-0.9891,0.0785,-0.0125,0.0059,-0.0022
1730000004210,49947,0.0386,-0.9889,0.0912,-0.0211,-0.0093,-0.0084
1730000004220,49954,0.0326,-0.9662,0.0814,0.0047,-0.0217,0.014
1730000004230,49962,0.0339,-0.9754,0.0801,0.013,-0.0035,-0.002
1730000004240,49969,0.0151,-0.9814,0.0752,0.0146,-0.0066,-0.0043
1730000004250,49976,0.0137,-1.0042,0.0956,0.0102,0.0173,-0.0053
1730000004260,49983,0.0346,-0.9711,0.0945,-0.0003,-0.0009,-0.0053
1730000004270,49990,0.0208,-0.9693,0.0949,0.0308,0.0018,0.0122
1730000004280,49998,-0.0072,-0.983,0.0825,0.0177,0.0085,-0.0006
1730000004290,50006,0.0154,-0.9894,0.099,0.0224,0.0262,0.0001
1730000004300,50016,0.0147,-0.9621,0.0798,-0.0026,-0.0005,-0.0063
1730000004310,50031,0.0113,-0.9778,0.0661,0.012,0.0168,-0.0077
1730000004320,50056,0.0017,-0.9649,0.0824,0.0004,-0.0267,-0.0192
1730000004330,50102,0.0371,-0.9769,0.085,-0.0014,0.0083,-0.0128
1730000004340,50183,0.0155,-0.9995,0.0691,-0.0142,-0.0361,-0.0046
1730000004350,50315,0.0129,-0.9959,0.0787,-0.0002,-0.0167,0.0201
1730000004360,50511,0.0272,-0.9495,0.0767,0.0179,0.0153,-0.0102
1730000004370,50767,0.0132,-0.9135,0.0759,0.0097,-0.0043,0.0083
1730000004380,51057,0.0101,-0.9917,0.0913,0.004,-0.0496,0.0002
1730000004390,51329,0.0182,-0.9572,0.0832,0.0068,0.0017,0.0029
1730000004400,51524,0.0085,-0.9875,0.0715,-0.0268,0.0158,0.0108
1730000004410,51591,0.0261,-0.983,0.0746,-0.0088,0.0223,0.0053
1730000004420,51514,0.0374,-0.9902,0.0777,-0.0252,-0.0283,-0.0016
1730000004430,51318,0.0166,-0.9809,0.0647,0.0039,-0.0057,0.0091
1730000004440,51057,0.0255,-0.9967,0.084,-0.012,0.0307,-0.0003
1730000004450,50792,0.015,-0.9784,0.065,0.0255,0.0424,-0.0173
1730000004460,50571,0.0175,-0.9723,0.0741,0.0244,0.0249,-0.0025
1730000004470,50417,0.0407,-0.9692,0.0776,0.0056,-0.0149,0.0145
1730000004480,50332,0.0262,-0.9768,0.0781,-0.0182,0.0053,-0.0129
1730000004490,50303,0.02,-0.9799,0.0857,0.0209,0.0157,-0.0012
1730000004500,50313,0.0129,-0.9754,0.0798,0.0098,-0.0114,-0.0097
1730000004510,50347,0.0217,-0.9421,0.0987,0.0159,-0.0198,0.0141
1730000004520,50394,0.0115,-0.9845,0.0843,-0.0276,0.016,-0.0005
1730000004530,50446,0.024,-0.9854,0.0885,0.0103,-0.0073,0.0095
1730000004540,50494,-0.0066,-0.9615,0.0789,-0.0159,0.0035,0.005
1730000004550,50534,0.0126,-0.971,0.0796,0.0079,0.0245,-0.0046
1730000004560,50562,0.0332,-0.9945,0.083,-0.0344,0.0014,0.0072
1730000004570,50574,0.0402,-0.9673,0.0725,0.0205,0.0008,0.001
1730000004580,50569,0.0292,-0.9463,0.0627,0.001,-0.0003,-0.0107
1730000004590,50550,0.0038,-0.9693,0.0754,-0.0145,-0.0027,-0.0035
1730000004600,50519,0.0202,-0.9363,0.0797,0.0376,0.0249,0.0097
1730000004610,50481,0.0127,-0.9736,0.0708,0.0083,-0.0013,0.0044
1730000004620,50440,0.023,-0.9642,0.0764,-0.0195,-0.0088,0.0072
1730000004630,50400,0.0184,-0.9687,0.0887,0.0098,-0.0295,-0.0008
1730000004640,50365,0.0113,-0.9684,0.0839,0.0102,0.0333,-0.005
1730000004650,50336,0.0171,-0.9557,0.0896,-0.0206,0.0137,0.0067
1730000004660,50315,0.0185,-0.9727,0.0873,0.0085,0.008,-0.0073
1730000004670,50301,0.0028,-0.9689,0.0773,0.0092,-0.0153,0.0063
1730000004680,50292,0.0241,-0.9817,0.0895,-0.0069,-0.0139,0.0025
1730000004690,50289,0.0199,-0.9848,0.0862,-0.0002,-0.0152,-0.0175
1730000004700,50288,0.0243,-0.9647,0.0812,0.0275,-0.0498,0.0127
1730000004710,50290,0.0336,-0.9861,0.0901,-0.0162,-0.0209,-0.001
1730000004720,50294,0.0383,-0.9592,0.0805,0.0177,-0.0124,0.015
1730000004730,50299,0.0357,-0.9577,0.0721,0.0214,0.0059,0.0064
1730000004740,50304,0.0314,-0.9575,0.071,0.0298,0.0056,0.0032
1730000004750,50309,0.0262,-0.9599,0.0875,0.0039,-0.0036,-0.0055
1730000004760,50314,0.0149,-0.9718,0.0899,-0.0067,-0.0022,-0.001
1730000004770,50320,0.0253,-0.953,0.0997,-0.0279,-0.0046,0.0057
1730000004780,50325,0.0031,-0.9311,0.0788,-0.0159,0.0194,-0.022
1730000004790,50331,0.0221,-0.9856,0.0799,0.0075,0.0159,0.0041
1730000004800,50336,0.0409,-0.9645,0.0766,0.0245,-0.0013,0.0042
1730000004810,50341,-0.0194,-0.9566,0.0793,-0.0087,-0.0131,0.009
1730000004820,50346,-0.0004,-0.9026,0.0915,0.0074,0.038,0.0027
1730000004830,50351,0.0111,-0.945,0.0636,0.012,0.024,0.0053
1730000004840,50356,0.0055,-0.9614,0.0788,-0.0148,-0.0462,-0.0119
1730000004850,50361,0.015,-0.9429,0.1075,0.0171,-0.0158,-0.0042
1730000004860,50366,0.0308,-0.9531,0.0839,0.0048,0.024,0.0224
1730000004870,50371,0.0201,-0.9621,0.085,-0.0092,-0.0439,0.0049
1730000004880,50376,0.0127,-0.9389,0.0818,0.0299,-0.0172,0.0113
1730000004890,50380,0.0037,-0.9465,0.0776,0.0187,-0.0072,0.0068
1730000004900,50385,0.025,-0.9575,0.0844,0.0336,-0.0112,0.014
1730000004910,50389,0.0165,-0.941,0.1034,-0.016,-0.0431,0.0016
1730000004920,50394,0.0131,-0.9756,0.0767,-0.0107,0.0286,0.0113
1730000004930,50398,0.0316,-0.9188,0.0723,-0.0499,0.0405,0.0025
1730000004940,50402,0.0194,-1.0011,0.0665,0.0138,-0.0029,-0.0215
1730000004950,50406,0.0106,-0.9441,0.0928,0.0043,0.0567,0.0103
1730000004960,50410,0.0381,-0.9384,0.0883,-0.0268,-0.032,-0.0074
1730000004970,50414,0.0226,-0.965,0.0837,-0.0004,0.0096,0.0099
1730000004980,50418,0.0201,-0.9708,0.0538,0.0174,-0.0155,-0.0091
1730000004990,50422,0.0287,-0.9466,0.0868,0.0191,-0.0219,-0.0023
1730000005000,50426,0.0145,-0.9304,0.0886,-0.0049,0.0168,0.0037
1730000005010,50429,0.0188,-0.9557,0.0885,-0.0028,-0.025,0.0035
1730000005020,50433,0.0174,-0.9879,0.0723,-0.005,0.0005,0.0056
1730000005030,50436,0.0179,-0.956,0.0763,0.0109,0.0081,0.0057
1730000005040,50440,0.0344,-0.9707,0.0641,-0.0016,0.0162,0.0002
1730000005050,50443,0.0232,-0.9995,0.0717,0.0108,0.0156,-0.0075
1730000005060,50446,0.0237,-0.9793,0.0685,0.0014,0.0043,0.004
1730000005070,50449,0.0273,-0.9315,0.0895,-0.0072,0.0188,-0.0147
1730000005080,50452,0.021,-0.944,0.0868,0.0166,0.0382,-0.0074
1730000005090,50456,0.0279,-0.967,0.0911,0.0024,0.0156,0.0155
1730000005100,50461,0.0263,-0.9694,0.0763,-0.0139,0.0208,0.0131
1730000005110,50469,0.0176,-1.0014,0.0737,0.0087,-0.0189,-0.0196
1730000005120,50483,0.0156,-1.0061,0.0833,-0.008,0.0012,0.013
1730000005130,50512,0.0109,-1.0083,0.0797,0.0094,-0.0286,-0.0037
1730000005140,50566,0.0165,-0.9648,0.0738,0.0533,-0.0052,0.0019
1730000005150,50657,0.0152,-1.0183,0.0938,-0.0631,0.0271,-0.0132
1730000005160,50800,0.0064,-0.9676,0.102,0.0064,-0.0038,-0.0077
1730000005170,51001,0.0265,-0.9729,0.0871,-0.0393,0.0106,0.0032
1730000005180,51251,0.0064,-0.9862,0.0785,-0.0097,0.0058,-0.0143
1730000005190,51522,0.0112,-0.9234,0.0716,-0.0085,-0.0035,-0.0028
1730000005200,51766,0.0321,-0.9772,0.0885,-0.0171,0.0155,-0.0021
1730000005210,51934,0.0183,-0.9676,0.0855,-0.0239,-0.0194,0.0204
1730000005220,51984,0.0251,-0.9731,0.0864,-0.0012,-0.045,0.0016
1730000005230,51906,0.0188,-0.959,0.0723,-0.0044,0.0228,-0.0015
1730000005240,51720,0.0157,-0.9588,0.0761,0.0214,-0.0035,0.0036
1730000005250,51471,0.013,-0.9911,0.0872,0.0052,0.0127,0.0074
1730000005260,51212,0.0053,-0.9638,0.0599,0.0104,-0.0217,0.0047
1730000005270,50986,0.0273,-0.9771,0.0798,0.0244,-0.0331,0.0064
1730000005280,50817,0.0212,-0.9475,0.0635,0.0001,0.0221,0.0136
1730000005290,50711,0.0123,-0.9721,0.0984,-0.0284,-0.0009,0.0018
1730000005300,50659,0.0217,-0.9853,0.0896,0.0178,0.0363,-0.0079
1730000005310,50649,0.0152,-0.9448,0.0982,-0.0002,-0.0306,-0.0022
1730000005320,50666,0.0296,-0.9533,0.0911,0.0385,-0.0086,-0.009
1730000005330,50700,0.008,-0.9694,0.0902,0.0345,0.0044,0.0001
1730000005340,50741,0.0187,-0.9426,0.0724,-0.0021,-0.0015,-0.0003
1730000005350,50783,0.0381,-0.985,0.1046,-0.0131,-0.0164,-0.0066
1730000005360,50821,0.0265,-0.9676,0.0912,-0.0165,-0.0335,-0.0037
1730000005370,50850,0.0228,-0.9969,0.0789,0.0107,-0.0161,-0.0082
1730000005380,50868,0.009,-0.9705,0.0846,0.055,0.0233,-0.0126
1730000005390,50870,0.0046,-0.9699,0.0957,0.0131,-0.0105,0.01
1730000005400,50859,0.0338,-0.9386,0.0693,0.0087,-0.0256,-0.0081
1730000005410,50834,0.0072,-0.9732,0.0656,0.0155,-0.0002,-0.0086
1730000005420,50798,0.0249,-0.9375,0.0835,-0.0117,-0.0057,-0.001
1730000005430,50756,0.013,-1.0025,0.0762,0.0249,-0.0165,-0.0193
1730000005440,50710,0.0191,-0.9464,0.0628,0.0038,0.0082,0.0054
1730000005450,50666,0.0256,-0.9564,0.0642,0.0123,0.0276,-0.0022
1730000005460,50625,0.0237,-0.989,0.093,-0.0124,0.033,-0.0038
1730000005470,50589,0.0268,-0.9796,0.0988,-0.0394,0.0074,-0.0208
1730000005480,50559,0.008,-0.9312,0.0891,-0.0402,-0.0001,-0.0062
1730000005490,50536,0.0257,-0.9322,0.0865,0.0087,0.0102,-0.0109
1730000005500,50519,0.027,-0.951,0.0739,-0.0128,0.029,0.0021
1730000005510,50506,0.0086,-0.978,0.0754,-0.0013,-0.0015,-0.0025
1730000005520,50497,0.0367,-0.9531,0.0948,-0.0339,0.0022,0.0117
1730000005530,50491,0.0273,-0.9835,0.0724,0.0192,-0.0043,0.0065
1730000005540,50486,0.0216,-0.9724,0.0812,-0.0166,0.034,0.0055
1730000005550,50483,0.034,-0.9808,0.0746,-0.0064,-0.0172,0.0068
1730000005560,50480,0.0271,-0.9807,0.0768,0.0075,-0.0151,-0.0041
1730000005570,50477,0.0356,-0.9856,0.0748,0.0501,-0.0425,-0.0118
1730000005580,50475,0.038,-0.979,0.085,0.0424,-0.0143,-0.0059
1730000005590,50473,0.0241,-0.9725,0.0748,-0.0027,-0.0266,0.0047
1730000005600,50471,0.0283,-0.9744,0.0778,0.011,-0.0108,-0.0031
1730000005610,50468,0.0193,-0.9419,0.0795,-0.0023,-0.0033,-0.0038
1730000005620,50466,0.0104,-0.99,0.0886,-0.0114,0.0018,-0.0048
1730000005630,50463,0.0067,-0.9811,0.094,-0.0083,-0.0135,-0.0043
1730000005640,50461,0.0167,-0.9674,0.0759,-0.002,-0.0098,0.0036
1730000005650,50458,0.0231,-0.9679,0.0863,-0.002,0.0243,0.0047
1730000005660,50455,0.0349,-0.974,0.0827,-0.0136,0.0003,0.0082
1730000005670,50452,0.0163,-0.9427,0.0803,0.0317,-0.021,-0.0028
1730000005680,50449,0.015,-0.9526,0.0864,-0.0015,-0.0091,-0.0003
1730000005690,50446,0.0272,-0.9563,0.0794,-0.0089,0.002,0.0013
1730000005700,50443,0.0225,-0.9823,0.0974,-0.0126,0.0302,0.0139
1730000005710,50440,0.0295,-0.9359,0.0856,-0.0063,-0.0105,-0.0067
1730000005720,50437,0.0284,-1.0032,0.0658,0.0306,0.0203,0.0041
1730000005730,50433,0.0292,-0.9583,0.0781,-0.0294,0.0257,0.0045
1730000005740,50430,0.0062,-0.9712,0.0753,-0.0023,-0.0066,0.0055
1730000005750,50426,0.0179,-0.9974,0.0867,0.0097,-0.0285,0.0041
1730000005760,50422,0.0289,-0.9775,0.0819,-0.0153,-0.035,0.0052
1730000005770,50418,0.0191,-0.9661,0.0777,-0.0052,0.0032,-0.0006
1730000005780,50415,0.0287,-0.9834,0.0656,0.0029,-0.0261,-0.0253
1730000005790,50411,0.009,-0.9839,0.072,-0.0307,-0.0045,0.0122
1730000005800,50407,0.0283,-0.9752,0.0892,-0.0088,-0.0176,0.0068
1730000005810,50402,0.0092,-0.9689,0.0797,-0.0073,-0.0092,0.0114
1730000005820,50398,0.0041,-0.9704,0.0771,-0.0148,0.0008,0.0032
1730000005830,50394,0.0194,-0.9711,0.0941,-0.012,0.0084,-0.0174
1730000005840,50390,0.0246,-1.0136,0.0863,-0.0095,0.0033,-0.0146
1730000005850,50385,0.0202,-0.96,0.0862,-0.0003,-0.0001,0.0115
1730000005860,50381,0.0274,-0.9892,0.0742,-0.0136,-0.0007,-0.0116
1730000005870,50376,-0.0016,-0.9813,0.0825,0.0037,0.0217,-0.0129
1730000005880,50371,0.0149,-1.006,0.0825,-0.0021,-0.0096,0.0004
1730000005890,50366,0.0129,-0.9979,0.0958,0.0162,-0.0037,-0.0154
1730000005900,50362,0.0179,-0.9662,0.0817,0.0202,0.0245,-0.0008
1730000005910,50357,0.0153,-0.9878,0.0759,0.0181,-0.0085,-0.0168
1730000005920,50352,0.0246,-0.9801,0.0753,-0.0393,0.0234,0.007
1730000005930,50348,0.0086,-0.9753,0.0692,-0.0272,-0.042,0.0078
1730000005940,50345,0.0288,-0.9848,0.0794,0.0351,-0.0151,-0.0118
1730000005950,50345,0.0213,-0.9678,0.077,-0.0285,-0.0153,0.0069
1730000005960,50353,0.0271,-1.0125,0.0678,-0.0197,-0.0005,0.0221
1730000005970,50377,0.0171,-0.9781,0.072,0.0517,-0.012,-0.0051
1730000005980,50428,0.0216,-1.006,0.0881,-0.0002,-0.0169,-0.006
1730000005990,50521,0.0011,-0.9909,0.0573,-0.009,-0.0099,-0.0059
1730000006000,50669,0.0142,-0.9968,0.0923,0.0288,-0.0034,0.0114
1730000006010,50877,0.0169,-0.9863,0.0717,0.0139,0.0124,-0.0129
1730000006020,51131,0.0216,-0.9908,0.071,-0.0005,-0.0384,-0.0043
1730000006030,51397,0.0389,-0.972,0.0686,0.0111,0.0018,-0.0032
1730000006040,51624,0.0141,-0.9809,0.0741,-0.0035,0.0148,0.0082
1730000006050,51758,0.007,-0.9905,0.0961,0.0359,0.0074,0.0161
1730000006060,51765,0.0321,-0.9841,0.06,-0.0012,-0.0256,0.0014
1730000006070,51641,0.0375,-0.9767,0.0721,-0.0234,-0.0393,-0.0191
1730000006080,51418,0.0363,-0.9648,0.0787,-0.0031,-0.001,-0.0001
1730000006090,51148,0.0339,-0.9743,0.0602,0.0212,-0.0386,-0.0041
1730000006100,50885,0.0061,-0.9815,0.0674,-0.0276,-0.0209,0.0081
1730000006110,50667,0.0181,-0.9692,0.0936,0.0048,0.0114,-0.0097
1730000006120,50513,0.0192,-1.0058,0.0855,0.0181,0.0193,-0.0003
1730000006130,50422,0.029,-0.9859,0.0744,0.01,0.0145,0.022
1730000006140,50382,0.0273,-1.0053,0.0702,-0.026,0.0015,-0.011
1730000006150,50379,0.0336,-0.9893,0.0864,0.003,0.0069,-0.0104
1730000006160,50398,0.0197,-0.9923,0.079,0.0025,0.0136,-0.0047
1730000006170,50430,0.0282,-0.9774,0.0964,-0.0663,-0.0129,0.0126
1730000006180,50466,-0.0052,-0.9545,0.0808,-0.0408,0.0145,-0.0105
1730000006190,50501,0.0109,-0.9551,0.0761,-0.0192,0.0402,0.0093
1730000006200,50529,0.0167,-1.0004,0.078,0.0315,-0.0197,-0.0127
1730000006210,50545,0.0327,-0.9905,0.081,0.0105,-0.0078,-0.0242
1730000006220,50548,0.0179,-0.9603,0.1017,-0.0024,-0.0006,0.0137
1730000006230,50535,0.026,-0.9794,0.0602,-0.0083,0.0043,-0.0151
1730000006240,50509,0.0163,-0.9514,0.0774,-0.0287,-0.0377,-0.0001
1730000006250,50470,0.0142,-1.0031,0.0823,0.0057,0.0035,0.0035
1730000006260,50422,0.0077,-0.9988,0.0767,-0.0011,0.0198,-0.0073
1730000006270,50370,0.0122,-0.9564,0.0816,-0.028,-0.0062,-0.0124
1730000006280,50318,0.0086,-1.0131,0.072,0.0412,0.0202,0.0138
1730000006290,50269,0.0309,-0.9893,0.084,0.0021,-0.0214,-0.0116
1730000006300,50225,0.029,-1.0112,0.082,0.013,0.0151,0.0037
1730000006310,50187,0.008,-0.9762,0.0786,-0.0196,-0.0398,0.0045
1730000006320,50156,0.0045,-1.0214,0.0975,-0.024,-0.0084,0.0007
1730000006330,50131,0.0207,-1.0078,0.0729,0.0161,-0.0056,-0.0002
1730000006340,50112,-0.0016,-0.9991,0.0886,-0.0146,-0.019,0.0037
1730000006350,50096,0.026,-0.9812,0.0743,0.015,0.0326,0.0117
1730000006360,50084,0.0044,-0.9294,0.0667,-0.0245,0.0061,-0.0009
1730000006370,50073,0.0236,-0.962,0.0893,-0.0179,0.0014,0.0101
1730000006380,50064,0.0305,-0.9659,0.0882,0.0142,-0.0103,-0.0132
1730000006390,50056,0.0242,-0.9977,0.0924,-0.0175,-0.0076,-0.0043
1730000006400,50049,0.0297,-0.9738,0.0802,0.0058,0.0323,-0.0176
1730000006410,50041,0.0275,-0.9674,0.0921,0.0161,-0.0155,-0.0054
1730000006420,50034,0.0266,-1.001,0.078,-0.0301,-0.0238,0.0035
1730000006430,50027,0.0157,-1.0046,0.0781,0.006,-0.0052,0.0017
1730000006440,50019,0.0209,-0.9946,0.0799,-0.0177,-0.01,-0.0184
1730000006450,50012,0.0083,-1.0135,0.076,0.0226,-0.0002,0.0015
1730000006460,50005,0.0106,-0.9842,0.097,-0.0017,-0.0165,-0.0117
1730000006470,49998,0.0226,-1.0089,0.0871,-0.0202,-0.0331,0.0048
1730000006480,49991,0.0071,-0.9781,0.0904,-0.0119,0.0042,0.0139
1730000006490,49984,0.0154,-0.9585,0.0767,-0.0188,0.002,0.0023
1730000006500,49976,0.0313,-0.9729,0.0837,0.0131,0.0036,0.0079
1730000006510,49969,0.0148,-1.0124,0.0821,0.0538,0.0162,-0.007
1730000006520,49962,0.0339,-1.0282,0.0775,0.0079,-0.0135,-0.0059
1730000006530,49955,0.0183,-1.0019,0.0722,-0.0217,-0.0312,-0.0097
1730000006540,49948,0.019,-0.9711,0.0734,-0.0242,0.0321,-0.0114
1730000006550,49941,0.0209,-1.0101,0.0728,0.0077,0.0092,0.0127
1730000006560,49934,0.0267,-0.9885,0.0862,-0.0206,0.0242,0.0053
1730000006570,49927,0.0249,-0.9797,0.0652,-0.0227,0.0026,0.0014
1730000006580,49920,0.0258,-0.9897,0.0782,0.0252,0.007,0.0075
1730000006590,49912,0.032,-0.9667,0.0832,0.0145,0.0053,0.0107
1730000006600,49905,0.0428,-1.013,0.0725,0.0317,0.0037,-0.0043
1730000006610,49898,0.0131,-0.9735,0.0856,0.0402,-0.0018,0.009
1730000006620,49891,0.0365,-1.0211,0.0695,0.0054,-0.0115,-0.0042
1730000006630,49884,0.0134,-0.9955,0.071,-0.0256,0.0077,0.0012
1730000006640,49877,0.0298,-0.9822,0.0842,0.0151,-0.0183,-0.005
1730000006650,49870,0.0227,-0.9741,0.0865,-0.0042,-0.0037,0.0025
1730000006660,49864,0.0084,-0.9759,0.0877,0.0186,0.0199,0.01
1730000006670,49857,0.0012,-0.9885,0.0657,-0.0191,-0.0027,0.0118
1730000006680,49850,0.0233,-0.9885,0.0979,0.0048,-0.019,-0.0139
1730000006690,49843,0.0113,-0.991,0.0646,0.0088,0.0062,-0.0072
1730000006700,49836,0.021,-0.983,0.0737,0.0147,-0.0143,0.0059
1730000006710,49829,0.0346,-0.987,0.0673,0.0018,0.0016,-0.0086
1730000006720,49823,0.0074,-1.0012,0.0887,0.0164,0.024,-0.0004
1730000006730,49816,0.0396,-1.0106,0.0844,-0.0048,0.0298,0.0003
1730000006740,49809,0.0097,-0.9889,0.0688,-0.0174,0.0185,-0.0002
1730000006750,49803,0.0286,-1.0113,0.093,-0.0035,-0.0391,-0.009
1730000006760,49798,0.006,-1.0232,0.0851,0.0073,0.0118,-0.0074
1730000006770,49794,0.0253,-1.0234,0.0752,-0.0032,-0.0114,0.001
1730000006780,49795,0.0198,-0.9847,0.083,0.0191,-0.0096,0.0065
1730000006790,49806,0.0228,-0.9893,0.0813,-0.0431,0.0383,-0.0092
1730000006800,49836,0.012,-1.0007,0.0669,0.0349,-0.0124,-0.0068
1730000006810,49897,0.0117,-0.9856,0.094,0.0055,-0.0155,0.0132
1730000006820,50005,0.0228,-1.0089,0.0793,0.0026,0.0047,0.0
1730000006830,50170,0.0202,-0.9572,0.1083,0.0035,-0.0183,-0.0105
1730000006840,50394,0.0281,-1.027,0.0782,0.0079,0.0036,-0.004
1730000006850,50655,0.0384,-0.9787,0.0753,0.0157,-0.0037,-0.0052
1730000006860,50914,0.0159,-0.971,0.0744,-0.0014,0.0204,0.003
1730000006870,51118,0.0224,-1.008,0.1033,0.0164,-0.0474,0.013
1730000006880,51216,0.0071,-1.0222,0.073,0.0252,-0.0054,0.0021
1730000006890,51183,0.0033,-0.9733,0.0773,-0.0258,0.0065,0.0049
1730000006900,51026,0.0209,-0.969,0.0858,0.03,-0.0011,0.0011
1730000006910,50783,0.0286,-0.9717,0.0767,0.0377,0.0023,0.0
1730000006920,50511,0.0244,-1.012,0.0635,0.0411,0.0213,-0.0092
1730000006930,50259,0.0214,-0.9824,0.0751,0.0287,-0.0099,0.0099
1730000006940,50059,0.0137,-0.9848,0.0955,0.0095,-0.0098,0.0022
1730000006950,49925,0.0272,-1.0035,0.0761,0.0352,0.0279,-0.0066
1730000006960,49851,0.0068,-1.0206,0.0689,-0.0057,-0.0015,-0.0138
1730000006970,49824,0.0215,-1.053,0.0814,0.0322,-0.0243,-0.0288
1730000006980,49829,0.0217,-0.981,0.0759,0.0046,0.0258,0.0169
1730000006990,49854,0.026,-1.0197,0.0817,-0.02,-0.0003,-0.0024
1730000007000,49889,0.0143,-0.9644,0.0777,-0.0296,0.0076,0.0069
1730000007010,49927,0.0205,-1.0105,0.0757,-0.0118,-0.0101,-0.007
1730000007020,49962,0.0178,-1.0221,0.0825,-0.0156,0.0175,0.0038
1730000007030,49988,0.0351,-1.0223,0.0941,-0.0023,0.0124,0.0089
1730000007040,50003,0.0296,-0.9937,0.0845,-0.0018,0.0146,-0.0089
1730000007050,50003,0.024,-0.9642,0.1001,0.0214,0.0292,0.0052
1730000007060,49988,0.0305,-0.956,0.0795,-0.0318,-0.0034,0.0019
1730000007070,49960,0.0118,-1.0189,0.0751,-0.0246,0.0183,0.017
1730000007080,49921,0.0268,-1.0228,0.0821,-0.0172,0.0056,-0.0082
1730000007090,49874,0.0298,-0.9808,0.0768,0.0101,0.0013,0.0173
1730000007100,49824,0.001,-0.9866,0.0924,-0.0073,-0.01,0.0018
1730000007110,49775,0.0108,-1.0055,0.0698,-0.0036,-0.0418,-0.006
1730000007120,49729,0.0256,-1.0023,0.0759,0.018,0.0316,-0.0074
1730000007130,49689,0.032,-1.0297,0.0715,0.0107,0.0052,0.0012
1730000007140,49656,0.0286,-0.9987,0.0876,-0.0098,-0.0125,-0.0187
1730000007150,49630,0.0268,-1.0119,0.0901,0.0202,-0.0044,0.0009
1730000007160,49610,0.022,-0.9986,0.0654,0.0289,-0.0114,0.0053
1730000007170,49595,0.0229,-0.9887,0.0822,0.0182,-0.0174,0.0099
1730000007180,49583,0.0217,-0.9936,0.0758,-0.0009,0.0116,-0.0117
1730000007190,49575,0.0028,-0.9998,0.087,-0.006,0.0274,0.013
1730000007200,49568,0.034,-0.9652,0.0826,0.0113,-0.0136,-0.0269
1730000007210,49563,0.0241,-1.0096,0.078,-0.0497,0.018,-0.002
1730000007220,49558,0.0141,-1.0172,0.0719,-0.0169,-0.0194,-0.0141
1730000007230,49555,0.0179,-1.0008,0.0886,-0.035,-0.0089,-0.0089
1730000007240,49551,0.0234,-0.995,0.0885,0.0368,0.0,0.0053
1730000007250,49548,0.0125,-0.9964,0.0802,0.0428,-0.0228,-0.0013
1730000007260,49545,0.0202,-1.0089,0.0835,0.0003,0.0024,-0.0072
1730000007270,49541,0.0273,-1.0123,0.0763,0.0169,0.028,-0.0075
1730000007280,49539,0.0262,-0.9953,0.0904,0.0022,0.0339,0.0153
1730000007290,49536,0.0103,-1.0,0.0725,-0.0016,-0.0363,-0.0167
1730000007300,49533,0.0302,-0.9866,0.0875,-0.0181,-0.021,-0.0019
1730000007310,49530,0.0338,-0.9917,0.0818,0.0236,0.0076,0.0018
1730000007320,49528,0.0243,-0.997,0.0957,-0.0021,-0.0144,0.0068
1730000007330,49525,0.0295,-1.0025,0.0872,0.0215,-0.067,-0.0172
1730000007340,49523,0.024,-1.0115,0.0969,0.0065,-0.002,0.0006
1730000007350,49521,0.0162,-1.0056,0.0812,0.0201,-0.0309,0.0024
1730000007360,49518,0.0155,-0.9909,0.0725,0.0029,-0.0214,-0.0002
1730000007370,49516,0.0174,-1.0258,0.0842,-0.0562,-0.0075,-0.0149
1730000007380,49514,0.0226,-0.9991,0.0882,-0.004,-0.0043,0.0112
1730000007390,49513,0.0154,-0.9929,0.0943,0.0132,0.0397,0.0046
1730000007400,49511,0.0147,-0.9707,0.0892,-0.0055,0.0108,-0.0008
1730000007410,49509,0.025,-0.9913,0.0787,0.0338,0.0091,-0.0133
1730000007420,49508,0.0221,-0.9978,0.0831,0.0048,0.0073,-0.017
1730000007430,49506,0.0043,-0.9637,0.0797,0.0268,0.0106,-0.0053
1730000007440,49505,0.0031,-0.9813,0.0852,0.035,-0.0041,0.0008
1730000007450,49503,0.0019,-1.0035,0.0825,-0.007,-0.0175,0.0142
1730000007460,49502,0.036,-1.0126,0.081,-0.0086,0.0297,0.0024
1730000007470,49501,0.026,-1.0098,0.0933,-0.006,0.0373,0.0109
1730000007480,49500,0.0135,-0.9804,0.0824,-0.0044,0.015,-0.0003
1730000007490,49499,0.0203,-1.0034,0.0726,0.0015,0.0036,0.0108
1730000007500,49499,0.0065,-0.9884,0.0959,-0.0136,-0.0209,-0.0093
1730000007510,49498,0.0279,-1.0158,0.0802,-0.0134,-0.0115,-0.0031
1730000007520,49497,0.0163,-0.9976,0.0795,0.0054,-0.0091,0.0047
1730000007530,49497,0.0152,-0.9992,0.0804,-0.0343,-0.0164,-0.0067
1730000007540,49497,0.0098,-0.9946,0.0727,-0.0182,0.0203,0.0208
1730000007550,49496,0.0299,-0.9838,0.0912,0.0063,-0.0052,0.0011
1730000007560,49496,0.0166,-1.0337,0.0716,-0.0166,0.0097,-0.0048
1730000007570,49496,0.002,-0.99,0.0829,0.0154,0.0073,0.0239
1730000007580,49497,0.0113,-0.9629,0.0892,-0.0127,-0.0026,-0.0075
1730000007590,49498,0.0188,-0.9979,0.0756,-0.0001,-0.0207,0.0112
1730000007600,49501,0.0288,-1.0027,0.0886,-0.021,-0.0357,0.0031
1730000007610,49510,0.0255,-1.0034,0.0853,0.0392,0.0602,-0.0087
1730000007620,49528,0.0233,-1.013,0.1083,-0.0087,0.0172,0.0009
1730000007630,49566,0.0094,-0.9924,0.0665,-0.0128,-0.0054,0.0022
1730000007640,49635,-0.0027,-0.9893,0.1055,-0.019,0.0065,-0.0042
1730000007650,49750,-0.0082,-1.0077,0.0732,0.0169,-0.0007,-0.0022
1730000007660,49922,0.0267,-0.9851,0.0784,0.0134,-0.0275,-0.0021
1730000007670,50151,0.0325,-1.0302,0.0721,0.0031,0.0046,-0.0034
1730000007680,50417,0.0243,-1.005,0.0898,0.0039,0.0363,0.0085
1730000007690,50681,0.0255,-0.9587,0.072,-0.0059,-0.035,0.0087
1730000007700,50892,0.0365,-0.9965,0.0678,0.0225,-0.0147,-0.005
1730000007710,51000,0.0354,-0.9938,0.0781,0.0322,0.0118,-0.0106
1730000007720,50980,0.0351,-1.0212,0.0901,0.0098,-0.0105,-0.0078
1730000007730,50837,0.0089,-0.9516,0.0812,-0.0126,0.0115,0.012
1730000007740,50609,0.0232,-0.972,0.0895,0.0012,0.0063,-0.0012
1730000007750,50347,0.0101,-1.0111,0.0845,-0.0142,-0.0004,-0.0025
1730000007760,50101,0.0297,-0.9799,0.0831,-0.0057,-0.0028,-0.0034
1730000007770,49906,0.0225,-1.0198,0.0798,0.0074,0.0079,-0.0108
1730000007780,49774,0.0158,-0.9927,0.0746,-0.0243,-0.0217,0.0001
1730000007790,49703,0.0239,-0.9819,0.0713,0.0077,-0.004,-0.005
1730000007800,49679,0.0107,-0.9948,0.0872,-0.0037,-0.0025,-0.01
1730000007810,49688,0.0479,-1.0297,0.0597,-0.0105,0.004,0.0177
1730000007820,49718,0.0251,-0.9782,0.0892,0.0019,-0.0391,0.0025
1730000007830,49760,0.0222,-0.9406,0.0728,0.0251,-0.0272,0.0153
1730000007840,49805,0.0213,-0.967,0.087,0.0136,0.002,-0.0066
1730000007850,49848,0.0184,-0.9988,0.0789,-0.0322,0.0034,0.0098
1730000007860,49884,0.032,-0.957,0.0815,-0.0031,-0.0051,0.0039
1730000007870,49909,0.0272,-0.9763,0.0665,0.0276,0.0095,0.0099
1730000007880,49920,0.0205,-0.988,0.0994,-0.0214,-0.0338,0.02
1730000007890,49916,0.0224,-0.9911,0.0741,-0.0401,0.0373,0.0071
1730000007900,49899,0.0251,-0.9659,0.0709,0.0092,0.0217,-0.022
1730000007910,49870,0.026,-0.9672,0.081,-0.0177,-0.0033,-0.0046
1730000007920,49833,0.0236,-0.9925,0.0876,-0.0104,-0.0104,0.0117
1730000007930,49792,0.0184,-0.971,0.067,0.0304,-0.029,0.001
1730000007940,49751,0.0178,-0.9967,0.0773,0.0247,0.0348,-0.0024
1730000007950,49712,0.0164,-1.0187,0.0972,-0.0213,-0.0182,0.001
1730000007960,49679,0.0273,-0.9505,0.1017,0.0151,-0.0096,-0.0066
1730000007970,49653,0.0182,-0.9646,0.0895,0.0123,-0.0379,-0.0057
1730000007980,49633,0.0346,-0.9911,0.0792,0.0545,-0.0015,0.0142
1730000007990,49619,0.0384,-0.9651,0.0757,-0.0456,-0.0172,0.0064
1730000008000,49610,0.0259,-0.9566,0.0689,0.004,-0.041,-0.0088
1730000008010,49606,0.0253,-1.0234,0.0882,0.0366,-0.0287,-0.0026
1730000008020,49604,0.0372,-0.9695,0.084,0.0022,-0.0274,-0.0014
1730000008030,49605,0.0329,-0.9776,0.0872,-0.0072,-0.0174,-0.0043
1730000008040,49608,0.0095,-1.0063,0.0798,-0.0046,-0.0188,0.007
1730000008050,49611,0.0107,-0.9703,0.085,0.0333,0.0068,0.0079
1730000008060,49615,0.0207,-1.0067,0.0886,0.0336,-0.0025,0.0209
1730000008070,49619,0.0292,-0.9383,0.0782,-0.0177,0.0011,-0.0073
1730000008080,49624,0.022,-0.983,0.0816,-0.0018,-0.0195,-0.0053
1730000008090,49629,0.0327,-0.9792,0.0666,-0.0403,-0.0064,0.0028
1730000008100,49634,0.0082,-1.0134,0.0856,0.0639,0.0174,-0.01
1730000008110,49639,0.0188,-0.9798,0.0673,-0.0281,-0.0029,0.0079
1730000008120,49644,0.0225,-0.9909,0.0851,0.0104,-0.0197,-0.0122
1730000008130,49649,0.0265,-0.9542,0.0841,0.0236,0.0293,-0.0153
1730000008140,49654,0.0248,-0.9504,0.0913,0.0285,-0.0118,0.0068
1730000008150,49659,0.0278,-0.9885,0.0819,-0.0266,-0.017,0.0033
1730000008160,49664,0.0305,-0.9763,0.0953,0.0298,-0.0197,-0.001
1730000008170,49670,0.015,-0.9596,0.0872,-0.0159,0.0185,-0.0132
1730000008180,49675,0.0318,-1.0246,0.0782,-0.0142,0.0135,0.0025
1730000008190,49681,-0.0019,-1.0025,0.0741,0.0237,0.0326,0.0068
1730000008200,49686,0.0342,-0.9904,0.0842,0.0025,-0.0216,-0.0035
1730000008210,49692,0.0164,-0.966,0.085,-0.011,-0.0106,-0.019
1730000008220,49698,0.0251,-0.977,0.0797,0.0109,-0.0099,-0.0096
1730000008230,49704,0.014,-0.9816,0.0822,-0.0121,-0.0088,-0.0133
1730000008240,49709,0.0159,-1.0094,0.0734,0.0108,0.0034,-0.0016
1730000008250,49715,0.0178,-0.9563,0.0682,0.0088,-0.0143,0.0028
1730000008260,49721,0.0185,-0.9849,0.0831,-0.0129,-0.0243,-0.0048
1730000008270,49727,0.0075,-0.9709,0.0739,-0.0253,0.0073,0.004
1730000008280,49733,0.0182,-0.9795,0.0891,-0.0054,0.0052,-0.0113
1730000008290,49739,0.0256,-0.9763,0.0852,-0.0055,-0.0151,-0.012
1730000008300,49746,0.0179,-0.9824,0.067,0.025,0.0205,-0.0203
1730000008310,49752,-0.0014,-1.0034,0.0816,0.0536,-0.0236,-0.0032
1730000008320,49758,0.0333,-0.9827,0.0912,0.0187,-0.0006,0.0088
1730000008330,49764,0.0294,-1.0006,0.0783,-0.0126,0.0006,-0.0121
1730000008340,49771,0.01,-0.9712,0.0799,0.0277,0.0042,0.0143
1730000008350,49777,0.0331,-0.9494,0.0447,-0.0155,0.0093,-0.0132
1730000008360,49784,0.0147,-0.9586,0.0805,-0.007,0.0346,-0.0042
1730000008370,49790,0.0311,-0.9728,0.081,-0.0072,-0.0168,-0.0022
1730000008380,49797,0.0063,-0.9593,0.0811,-0.0088,0.0159,-0.0104
1730000008390,49803,0.0003,-0.9629,0.0662,-0.0279,0.0033,0.0097
1730000008400,49810,0.0122,-0.989,0.0951,-0.0282,0.017,0.0043
1730000008410,49817,0.0127,-0.9737,0.0714,-0.0133,-0.0031,-0.0071
1730000008420,49824,0.0035,-0.9566,0.074,0.0159,-0.0031,0.0281
1730000008430,49832,0.0256,-0.9975,0.0663,-0.0179,-0.0086,-0.0165
1730000008440,49843,0.0087,-0.9701,0.0644,-0.002,0.0047,-0.01
1730000008450,49861,0.026,-0.9686,0.0909,0.0133,-0.0043,-0.0016
1730000008460,49890,0.0246,-0.9625,0.0631,0.0185,-0.0112,0.0113
1730000008470,49942,0.0218,-0.9829,0.08,0.0288,-0.015,-0.0171
1730000008480,50031,0.0174,-0.9445,0.0959,0.0207,-0.0424,-0.0024
1730000008490,50168,0.0152,-0.9731,0.0691,-0.0055,-0.0237,0.0232
1730000008500,50364,0.0206,-0.9797,0.0676,0.0192,0.0117,0.0116
1730000008510,50612,0.0235,-0.9786,0.0727,-0.0153,-0.0081,0.0069
1730000008520,50888,0.0145,-0.9634,0.0875,-0.0091,0.0196,0.0042
1730000008530,51147,0.0238,-0.9694,0.0817,-0.0172,-0.0168,0.0025
1730000008540,51337,0.0289,-0.9734,0.085,-0.0046,-0.0157,0.0001
1730000008550,51414,0.0238,-0.9824,0.0741,-0.0099,0.0037,-0.0148
1730000008560,51363,0.0227,-0.9632,0.0821,-0.0112,0.0056,-0.011
1730000008570,51197,0.0124,-0.9523,0.0667,-0.0129,-0.0116,0.0065
1730000008580,50960,0.0056,-0.9799,0.0691,0.0331,-0.0055,-0.0052
1730000008590,50704,0.0211,-0.9507,0.0593,-0.0216,0.0044,-0.0063
1730000008600,50476,0.0056,-0.982,0.0816,0.0065,0.0392,-0.0164
1730000008610,50303,0.0052,-0.9919,0.0897,-0.0179,-0.0304,0.0081
1730000008620,50193,0.0126,-0.9453,0.0821,-0.0132,0.0179,0.0082
1730000008630,50141,0.035,-0.9757,0.0768,0.0294,0.0222,0.0026
1730000008640,50132,0.0115,-0.9883,0.0657,-0.0198,-0.0041,-0.0119
1730000008650,50152,0.0272,-1.0188,0.072,-0.0136,0.0122,0.0052
1730000008660,50191,0.0077,-0.9625,0.0696,0.0058,-0.0244,0.0013
1730000008670,50238,0.0347,-0.9262,0.0909,-0.0206,-0.0104,-0.0093
1730000008680,50288,0.0139,-1.0018,0.0737,0.0224,0.0447,0.0043
1730000008690,50334,0.022,-0.9533,0.0642,-0.0169,0.0161,-0.0023
1730000008700,50371,0.0163,-0.9496,0.0609,0.0233,-0.0162,0.0056
1730000008710,50397,0.02,-0.952,0.0899,-0.0202,0.0167,0.0051
1730000008720,50409,0.0343,-0.977,0.0919,0.0146,-0.0088,0.01
1730000008730,50406,0.0163,-0.9481,0.079,0.0022,0.0014,0.0101
1730000008740,50390,0.0191,-0.9546,0.086,-0.0172,0.0185,0.0147
1730000008750,50363,0.0251,-0.958,0.0715,0.0258,-0.0307,0.0014
1730000008760,50329,0.0355,-0.9798,0.0854,-0.0145,0.0132,-0.0142
1730000008770,50291,0.0159,-0.9787,0.081,-0.034,0.0302,0.0031
1730000008780,50254,0.0151,-0.9361,0.0798,0.0051,0.0058,0.0159
1730000008790,50220,0.0216,-0.9872,0.0809,0.0084,-0.0005,-0.0065
1730000008800,50191,0.0119,-0.9997,0.0848,-0.0167,-0.0129,0.0051
1730000008810,50169,0.0308,-0.9864,0.0765,-0.0079,0.0101,-0.0104
1730000008820,50154,0.012,-0.9572,0.074,-0.0206,-0.0002,-0.0092
1730000008830,50144,0.0173,-0.9399,0.0782,-0.0027,-0.0094,-0.0152
1730000008840,50139,0.0218,-0.9451,0.0926,0.0571,-0.0059,0.002
1730000008850,50138,0.009,-0.9284,0.0899,0.0192,0.0119,-0.0013
1730000008860,50140,-0.0054,-0.9404,0.0867,0.0052,-0.0165,0.0087
1730000008870,50144,0.023,-0.9613,0.0689,-0.0224,-0.0018,-0.0011
1730000008880,50149,0.0096,-0.9306,0.0756,-0.0013,0.0052,0.0147
1730000008890,50155,0.0122,-0.9689,0.0673,0.021,0.0085,0.0016
1730000008900,50161,0.0228,-0.9289,0.0789,-0.0117,-0.0116,0.0103
1730000008910,50167,0.0259,-0.9555,0.0735,0.0109,0.012,0.0011
1730000008920,50174,0.0187,-0.9556,0.084,-0.0096,-0.0062,-0.0172
1730000008930,50180,0.026,-0.9673,0.0955,-0.0357,0.0034,0.0059
1730000008940,50187,0.013,-0.9554,0.0828,0.0106,-0.0047,-0.0318
1730000008950,50194,0.0208,-0.9632,0.0727,-0.0265,0.0105,0.004
1730000008960,50200,0.0358,-0.9812,0.0919,0.0003,-0.0099,0.005
1730000008970,50207,0.0288,-0.9755,0.0957,0.0004,-0.0247,-0.0114
1730000008980,50213,0.0307,-0.9761,0.0809,0.0021,-0.0022,0.0098
1730000008990,50220,0.0152,-0.9872,0.057,-0.0024,-0.0053,0.0124
1730000009000,50226,0.013,-0.9445,0.0771,0.0344,-0.0195,-0.004
1730000009010,50232,0.0268,-0.9412,0.0884,-0.0267,0.0218,-0.0001
1730000009020,50239,0.0037,-0.9762,0.0765,-0.016,0.0261,0.0054
1730000009030,50245,0.0314,-0.9826,0.0633,0.009,0.0007,0.0086
1730000009040,50251,0.0266,-0.9619,0.088,0.0015,0.0041,0.0198
1730000009050,50257,0.0329,-0.9861,0.0642,0.0271,-0.0087,-0.0013
1730000009060,50263,0.0151,-0.9585,0.0759,-0.0238,-0.0357,-0.0239
1730000009070,50269,0.0095,-0.9406,0.0706,-0.0005,0.0224,0.0131
1730000009080,50275,0.0144,-0.9509,0.0762,-0.0388,0.0191,0.0011
1730000009090,50281,0.0112,-0.961,0.0833,0.0033,-0.0194,-0.0017
1730000009100,50287,0.0231,-0.9501,0.0778,-0.0217,0.0085,0.0124
1730000009110,50293,0.014,-0.9551,0.0905,0.0212,0.0269,0.0028
1730000009120,50298,0.0341,-0.9382,0.0717,0.0062,0.0047,-0.0068
1730000009130,50304,0.0167,-1.0055,0.0871,0.017,0.023,0.0135
1730000009140,50310,0.014,-0.9686,0.0954,0.0216,-0.0148,-0.0236
1730000009150,50315,0.0177,-0.9868,0.0806,0.0194,-0.0289,0.0027
1730000009160,50321,0.0078,-0.9158,0.0805,0.0095,-0.0209,-0.0213
1730000009170,50326,0.0104,-0.9847,0.0917,-0.023,0.0165,0.0042
1730000009180,50331,0.0189,-1.0153,0.0745,0.0194,0.0107,0.0015
1730000009190,50337,0.0056,-0.9631,0.0825,-0.0097,0.0087,-0.0071
1730000009200,50342,-0.0001,-0.9786,0.0731,0.0244,0.0144,-0.0005
1730000009210,50347,0.0145,-0.9546,0.0949,-0.0193,-0.0128,0.0115
1730000009220,50352,0.0248,-0.9747,0.0916,0.011,-0.0189,0.0027
1730000009230,50357,0.0199,-0.9329,0.0861,0.0097,0.0027,0.0052
1730000009240,50362,0.0061,-0.9951,0.0839,0.008,-0.0081,-0.02
1730000009250,50367,0.0091,-0.9554,0.0813,-0.0128,-0.0186,0.0027
1730000009260,50372,0.0185,-0.9694,0.075,0.003,0.0057,-0.0063
1730000009270,50378,0.0366,-0.9781,0.0817,-0.031,-0.02,0.0092
1730000009280,50386,0.0273,-0.9621,0.0733,0.0071,-0.0199,0.0107
1730000009290,50398,-0.0063,-0.9742,0.072,0.0259,-0.004,0.0124
1730000009300,50420,0.0345,-0.9575,0.0636,-0.0151,-0.01,0.004
1730000009310,50459,0.0238,-0.9933,0.0878,-0.0203,-0.0071,0.0026
1730000009320,50527,0.0187,-0.9355,0.0914,-0.0264,-0.0225,0.0115
1730000009330,50637,0.0211,-0.9544,0.0803,0.0246,0.0154,0.0079
1730000009340,50799,0.0132,-0.9549,0.0639,-0.0048,-0.0127,-0.0078
1730000009350,51015,0.0106,-1.0074,0.0924,-0.0043,-0.0035,0.005
1730000009360,51272,0.0307,-0.9406,0.0757,0.0038,-0.0181,0.0073
1730000009370,51535,0.0202,-0.9493,0.0883,0.0156,0.0107,0.0009
1730000009380,51761,0.0076,-0.961,0.0968,-0.0087,-0.0135,0.0062
1730000009390,51901,0.0367,-0.9885,0.0558,-0.0123,0.002,-0.0014
1730000009400,51924,0.0174,-0.9779,0.0735,-0.0165,0.0072,0.0057
1730000009410,51826,0.0041,-0.9364,0.0844,0.0111,-0.0057,0.0025
1730000009420,51633,0.0088,-0.9365,0.0941,-0.0048,-0.0264,-0.0031
1730000009430,51387,0.0259,-0.9762,0.072,0.0032,-0.0175,0.0134
1730000009440,51138,0.0295,-0.9552,0.0729,0.0041,0.0222,-0.0209
1730000009450,50924,0.0221,-0.9405,0.0981,-0.019,0.0055,0.0104
1730000009460,50766,0.0321,-1.0055,0.0599,0.0031,0.01,-0.0012
1730000009470,50668,0.0167,-0.9433,0.0948,-0.0118,0.0032,-0.0116
1730000009480,50621,0.0374,-0.9972,0.0693,-0.0178,-0.021,0.0128
1730000009490,50613,0.0432,-0.964,0.0766,0.0144,-0.0181,0.0134
1730000009500,50632,0.0196,-0.961,0.0731,-0.0041,-0.0324,0.0002
1730000009510,50666,0.0289,-1.0066,0.0699,-0.0095,-0.0062,-0.0009
1730000009520,50708,0.0195,-0.9641,0.0796,-0.0336,0.0063,0.012
1730000009530,50752,0.0226,-1.0054,0.0823,0.0095,-0.0198,0.0008
1730000009540,50792,0.0328,-0.9377,0.0813,0.0101,-0.0033,-0.0041
1730000009550,50824,0.0339,-0.951,0.0862,-0.0105,0.0293,0.0104
1730000009560,50844,0.0071,-0.9487,0.0817,0.0056,-0.0403,-0.0146
1730000009570,50852,0.0299,-0.986,0.0881,-0.0265,-0.0295,0.0191
1730000009580,50846,0.0291,-0.9734,0.0822,-0.0142,0.0071,0.0118
1730000009590,50826,0.0158,-0.9613,0.0631,0.036,0.0201,-0.0003
1730000009600,50796,0.0167,-0.943,0.075,0.0074,-0.0063,-0.0092
1730000009610,50758,0.0304,-0.9796,0.0846,-0.0069,-0.0027,-0.0017
1730000009620,50716,0.0135,-0.9569,0.0791,0.0173,0.0149,0.0122
1730000009630,50674,0.0151,-0.9585,0.0783,-0.0004,-0.0143,-0.0047
1730000009640,50635,0.0263,-0.9788,0.0727,0.017,0.0071,-0.0122
1730000009650,50600,0.0211,-0.9496,0.091,-0.0107,-0.0222,-0.0037
1730000009660,50571,0.0334,-0.9575,0.0571,0.0172,-0.0444,0.0193
1730000009670,50547,0.0285,-0.9805,0.0811,0.0132,-0.0099,0.0046
1730000009680,50530,0.0187,-0.9778,0.0953,-0.0408,0.0009,-0.0139
1730000009690,50518,0.0182,-0.9871,0.1055,-0.0103,-0.0027,-0.0062
1730000009700,50509,0.0289,-0.9834,0.0735,0.0374,0.0156,0.0027
1730000009710,50504,0.0441,-0.9861,0.0719,-0.0159,0.0241,-0.0062
1730000009720,50500,0.0319,-0.9862,0.0619,-0.016,0.0057,0.0119
1730000009730,50499,0.033,-0.9665,0.0868,-0.0529,0.0053,0.0004
1730000009740,50497,0.0169,-0.9874,0.0888,0.0228,0.0393,-0.0019
1730000009750,50497,0.012,-0.9366,0.0768,-0.0104,-0.0277,0.0042
1730000009760,50497,0.0261,-0.9576,0.0822,0.0109,0.0111,0.0051
1730000009770,50496,0.0318,-0.9576,0.0819,-0.0107,0.0161,-0.0058
1730000009780,50496,0.0185,-0.9892,0.1013,-0.0194,0.0133,0.0068
1730000009790,50496,0.0288,-0.9759,0.0808,-0.0039,-0.0544,-0.0076
1730000009800,50496,0.0336,-0.9917,0.0814,0.0528,-0.0194,-0.005
1730000009810,50495,0.0175,-1.0156,0.0713,-0.0286,0.0109,-0.0025
1730000009820,50495,-0.0013,-0.9596,0.0897,-0.0072,0.0189,0.0059
1730000009830,50494,0.0109,-0.9704,0.0818,-0.0167,-0.0205,0.0041
1730000009840,50493,0.0431,-0.977,0.0821,-0.0211,-0.0052,-0.002
1730000009850,50492,0.0162,-0.9896,0.0795,-0.0113,0.0248,0.0205
1730000009860,50491,0.0124,-0.984,0.0843,0.0117,-0.0153,-0.0057
1730000009870,50490,0.0259,-1.0097,0.1022,0.006,-0.0061,-0.0015
1730000009880,50489,0.0093,-0.9411,0.0792,-0.0087,0.0351,0.0103
1730000009890,50488,0.0181,-0.9687,0.0767,-0.0072,-0.0044,0.003
1730000009900,50487,0.0309,-0.9381,0.0583,0.0464,0.0205,0.0002
1730000009910,50485,0.0157,-1.0152,0.0919,-0.0219,0.013,-0.0041
1730000009920,50484,0.0037,-0.9698,0.0849,-0.0187,0.0172,0.0181
1730000009930,50482,0.0249,-0.9697,0.0727,-0.0208,-0.0081,0.0007
1730000009940,50480,0.0201,-0.9826,0.1049,0.0114,-0.0195,-0.012
1730000009950,50478,0.0026,-0.999,0.0858,-0.0057,-0.0139,0.0059
1730000009960,50477,0.0255,-0.9716,0.0799,-0.0007,-0.0264,-0.0185
1730000009970,50474,0.0119,-0.9951,0.0718,-0.0035,-0.0095,-0.013
1730000009980,50472,0.019,-0.9728,0.0751,0.0164,0.0063,0.0039
1730000009990,50470,0.0163,-0.9715,0.0868,-0.0386,0.0214,-0.0051
1730000010000,50468,0.0265,-1.0261,0.0757,-0.034,-0.003,0.0018
1730000010010,50465,0.0241,-0.9798,0.0675,0.0261,-0.0269,-0.0034
1730000010020,50463,0.0122,-0.9925,0.066,0.0217,0.0149,0.0007
1730000010030,50460,0.0186,-0.9999,0.0789,-0.0182,0.0017,0.0039
1730000010040,50458,0.0175,-0.973,0.0858,0.0161,0.0395,-0.0143
1730000010050,50455,0.0077,-1.0055,0.078,-0.0319,-0.0106,0.0084
1730000010060,50452,0.0273,-0.9486,0.0885,0.0203,-0.0106,-0.0036
1730000010070,50449,0.0288,-0.9645,0.0608,-0.0278,-0.0196,-0.0086
1730000010080,50446,0.0332,-0.9458,0.0833,0.0068,0.0388,0.0045
1730000010090,50443,0.0256,-0.9747,0.0837,0.027,0.0145,0.0009
1730000010100,50439,0.0161,-0.9771,0.0634,0.0092,0.0025,0.0032
1730000010110,50436,0.0084,-0.9732,0.0818,-0.0001,0.0074,-0.0083
1730000010120,50433,0.0054,-0.9737,0.058,0.0119,0.0414,0.0037
1730000010130,50431,0.0285,-0.9505,0.0904,0.0455,-0.0174,-0.0034
1730000010140,50430,0.0248,-1.0156,0.0799,0.0013,0.026,0.0107
1730000010150,50434,0.0277,-0.9696,0.0806,0.0058,0.0152,0.0101
1730000010160,50448,0.0128,-0.9747,0.0792,0.0053,0.0231,-0.0025
1730000010170,50479,0.0108,-1.0022,0.0743,0.0122,-0.0033,-0.006
1730000010180,50540,0.0277,-0.981,0.087,0.0439,0.0376,0.0034
1730000010190,50645,0.0234,-0.9621,0.0928,-0.0072,-0.0245,0.0086
1730000010200,50804,0.0223,-0.9724,0.0854,-0.014,-0.0102,0.0107
1730000010210,51019,0.0184,-1.0005,0.0772,0.008,-0.0102,0.0174
1730000010220,51272,0.0281,-1.0149,0.0823,0.0314,0.0659,-0.0047
1730000010230,51530,0.0202,-1.0124,0.0856,0.0096,0.0057,-0.0108
1730000010240,51743,0.0278,-0.949,0.0936,0.0072,-0.001,0.009
1730000010250,51864,0.0186,-1.0363,0.0628,0.0274,0.0266,-0.0013
1730000010260,51862,0.012,-0.992,0.0671,-0.0051,0.0349,-0.0063
1730000010270,51737,0.0121,-1.0131,0.0821,-0.019,0.013,-0.0031
1730000010280,51520,0.0368,-0.9746,0.0848,-0.0281,0.0005,0.003
1730000010290,51258,0.0234,-0.9795,0.0812,-0.0234,-0.0481,-0.0112
1730000010300,51002,0.0301,-0.9708,0.0914,0.0066,0.0045,0.0002
1730000010310,50788,0.0029,-0.9835,0.0735,-0.0122,-0.0198,-0.0007
1730000010320,50633,0.0292,-0.9712,0.0703,0.0048,-0.0015,-0.0201
1730000010330,50539,0.0294,-1.0004,0.0858,-0.0158,0.0156,0.0125
1730000010340,50495,0.0226,-0.9768,0.0735,-0.0063,-0.0224,0.0105
1730000010350,50487,0.0319,-0.9974,0.0804,-0.0133,-0.0262,-0.0051
1730000010360,50504,0.008,-1.0268,0.083,-0.0199,-0.0008,-0.0266
1730000010370,50533,0.0209,-1.0021,0.0737,0.0174,-0.0024,0.003
1730000010380,50569,0.0205,-0.9788,0.0721,-0.0002,-0.0047,0.0071
1730000010390,50605,0.0142,-0.9736,0.0853,-0.0116,0.0145,-0.004
1730000010400,50635,0.0136,-1.0048,0.0693,0.0062,-0.0039,-0.0031
1730000010410,50656,0.0285,-0.9714,0.0811,-0.0387,0.0097,-0.0196
1730000010420,50664,0.0111,-0.9924,0.0953,-0.0496,-0.0306,-0.0072
1730000010430,50659,0.0269,-1.022,0.072,0.0243,0.0176,-0.0061
1730000010440,50639,0.0301,-0.9879,0.0709,-0.0143,-0.0126,-0.0108
1730000010450,50606,0.0246,-0.9695,0.0656,0.0133,-0.0209,-0.0007
1730000010460,50564,0.023,-0.9696,0.0798,0.005,0.0326,0.0162
1730000010470,50516,0.0305,-0.9751,0.0851,0.0328,0.0147,-0.0068
1730000010480,50465,0.0211,-0.9821,0.0661,-0.0116,0.0342,-0.0114
1730000010490,50416,0.0251,-0.9842,0.0897,-0.0155,-0.0155,0.0005
1730000010500,50370,0.0137,-0.9596,0.0818,0.0171,-0.0199,0.0059
1730000010510,50330,0.0449,-0.9919,0.0688,0.0228,-0.0095,-0.0129
1730000010520,50297,0.0087,-1.0146,0.0852,-0.017,-0.0174,-0.0037
1730000010530,50269,0.0243,-0.9733,0.0923,-0.0066,0.0203,-0.0079
1730000010540,50247,0.0371,-0.9788,0.0827,-0.0318,0.0195,-0.0047
1730000010550,50230,0.0139,-1.0078,0.0739,0.0099,0.0085,0.0005
1730000010560,50216,0.0387,-1.0165,0.0829,-0.0266,0.0113,0.0057
1730000010570,50205,0.0214,-0.9816,0.0858,0.0097,-0.0277,0.0088
1730000010580,50195,0.0375,-0.9694,0.0774,0.0393,0.0049,0.0117
1730000010590,50187,0.0268,-0.9631,0.0641,-0.0159,0.0105,-0.0024
1730000010600,50180,0.0164,-0.9621,0.0744,0.0062,0.0075,-0.0023
1730000010610,50172,-0.0031,-1.0295,0.0774,0.044,-0.0144,-0.0002
1730000010620,50165,0.0408,-0.9916,0.0851,0.0062,-0.0168,-0.0086
1730000010630,50158,0.015,-0.9927,0.0727,-0.0099,0.0052,0.012
1730000010640,50152,0.0436,-1.0069,0.0828,-0.0196,-0.0124,-0.0172
1730000010650,50145,0.0373,-1.0013,0.0896,-0.0211,-0.0469,0.0171
1730000010660,50138,0.0038,-1.0136,0.092,0.0018,-0.0037,0.0133
1730000010670,50131,0.0172,-0.977,0.0676,0.0285,-0.0111,0.0018
1730000010680,50124,0.0128,-1.0094,0.0772,0.0183,-0.0049,0.0019
1730000010690,50117,0.0153,-0.9668,0.0653,-0.0335,0.0283,-0.0216
1730000010700,50110,0.0372,-0.9937,0.0843,0.0065,-0.0132,0.0052
1730000010710,50103,0.0404,-0.9691,0.0729,0.0248,-0.0234,-0.0022
1730000010720,50096,0.0215,-0.9687,0.0661,0.021,-0.0082,-0.0164
1730000010730,50089,0.03,-1.002,0.06,0.0159,-0.0337,-0.0038
1730000010740,50082,0.0087,-1.01,0.0909,0.0127,-0.0302,-0.0023
1730000010750,50075,0.0207,-0.9667,0.0846,-0.0242,-0.0258,0.0066
1730000010760,50068,0.0276,-1.006,0.0737,0.0102,0.0058,-0.0263
1730000010770,50061,0.0173,-0.9776,0.0652,0.0174,-0.025,0.0023
1730000010780,50054,0.0115,-1.0264,0.0822,-0.002,0.0304,0.0083
1730000010790,50047,0.0041,-0.9876,0.0898,0.017,0.0372,0.0195
1730000010800,50040,0.0129,-0.9865,0.104,0.0256,-0.0134,-0.0152
1730000010810,50032,0.0044,-0.9812,0.0789,-0.0037,-0.0116,-0.0086
1730000010820,50025,0.0262,-0.995,0.0843,-0.0327,0.0358,0.0118
1730000010830,50018,0.0307,-1.0357,0.0889,-0.0287,0.0086,0.0116
1730000010840,50011,0.0307,-0.98,0.0985,0.0033,-0.0161,-0.0053
1730000010850,50004,0.0202,-0.9778,0.0694,0.0163,-0.0005,-0.0046
1730000010860,49997,0.0107,-1.0041,0.0831,-0.0039,0.0151,-0.0161
1730000010870,49989,0.0053,-1.0154,0.0911,-0.0028,0.0007,0.0059
1730000010880,49982,0.0266,-1.0054,0.0657,-0.0072,-0.0306,-0.0007
1730000010890,49975,0.0123,-0.989,0.082,-0.0073,0.0127,0.0284
1730000010900,49968,0.0016,-0.9463,0.0703,-0.0271,-0.0192,0.0073
1730000010910,49961,0.0222,-1.0073,0.0742,-0.0152,0.0118,0.0125
1730000010920,49954,0.0174,-1.0085,0.0762,-0.0462,-0.0011,0.0038
1730000010930,49947,0.0163,-1.005,0.0912,0.0063,0.0078,0.005
1730000010940,49940,0.0214,-0.9687,0.0663,-0.0006,-0.0457,-0.0042
1730000010950,49932,0.04,-1.0206,0.069,-0.0015,0.0173,0.0068
1730000010960,49926,0.0146,-0.961,0.0794,0.0228,0.0319,-0.0098
1730000010970,49919,0.0051,-0.9843,0.0819,0.0007,0.0054,-0.001
1730000010980,49913,0.0356,-1.0552,0.0927,0.0052,-0.0025,-0.0097
1730000010990,49910,0.0323,-1.0182,0.0811,0.0228,-0.0331,0.0032
1730000011000,49913,0.0231,-0.9865,0.0753,0.0117,0.0208,-0.003
1730000011010,49928,0.0408,-1.0177,0.0732,0.0241,-0.0043,-0.0094
1730000011020,49964,0.0155,-0.9647,0.0879,-0.0185,-0.0375,0.0149
1730000011030,50036,0.0225,-1.0034,0.0709,-0.0414,-0.0264,0.003
1730000011040,50157,0.0151,-0.9621,0.0892,-0.0118,-0.0185,0.0129
1730000011050,50336,0.0163,-0.9421,0.081,-0.0273,-0.0408,-0.0074
1730000011060,50568,0.0345,-0.9999,0.055,-0.0125,-0.0058,0.0137
1730000011070,50831,0.0243,-0.9979,0.083,0.0445,0.0212,-0.0074
1730000011080,51078,0.0268,-0.9722,0.1033,0.0057,-0.0065,0.0036
1730000011090,51260,0.0152,-0.9918,0.072,0.0005,-0.0291,0.0084
1730000011100,51329,0.028,-1.0278,0.0875,-0.0112,0.0283,0.01
1730000011110,51268,0.0309,-0.983,0.0696,-0.0415,0.0027,-0.0127
1730000011120,51091,0.0219,-1.0245,0.0878,0.0103,-0.0256,-0.0096
1730000011130,50841,0.0242,-0.977,0.0823,-0.0139,0.0032,-0.0023
1730000011140,50570,0.0147,-1.0228,0.0804,-0.0164,-0.0026,-0.0201
1730000011150,50327,0.0284,-1.0058,0.0808,0.03,0.0311,0.0066
1730000011160,50138,0.0098,-0.9963,0.083,0.0054,0.0028,0.0082
1730000011170,50014,0.0266,-0.9701,0.0882,-0.0139,-0.0064,-0.0001
1730000011180,49947,0.0241,-1.0042,0.0799,-0.0066,-0.0107,0.0041
1730000011190,49924,0.0291,-0.9589,0.0902,-0.0078,0.0254,-0.0143
1730000011200,49931,0.0242,-1.0054,0.0745,0.0396,-0.0084,0.0025
1730000011210,49956,0.0259,-0.9947,0.0664,0.0066,-0.0068,-0.0011
1730000011220,49990,0.0198,-0.985,0.0841,-0.0304,0.0044,0.0176
1730000011230,50026,0.0009,-1.0126,0.0731,-0.0397,-0.0366,-0.0096
1730000011240,50059,0.0315,-1.0013,0.0707,-0.0034,0.0098,0.0049
1730000011250,50083,0.0204,-0.941,0.0826,0.0087,-0.0106,-0.0086
1730000011260,50096,0.0084,-1.0196,0.0855,0.0032,-0.0126,-0.0035
1730000011270,50094,0.0306,-0.9978,0.0803,0.0058,0.0099,-0.0076
1730000011280,50078,-0.0046,-1.0326,0.0835,-0.0115,-0.0068,-0.0172
1730000011290,50048,0.012,-0.9911,0.0804,-0.0216,-0.0231,0.0193
1730000011300,50008,0.0175,-0.9955,0.0666,-0.0156,-0.0055,-0.0115
1730000011310,49960,0.0209,-1.0164,0.0726,-0.016,-0.0332,-0.0158
1730000011320,49910,0.0212,-1.0138,0.0781,-0.0029,0.0066,0.0081
1730000011330,49860,0.0135,-1.0161,0.0819,0.0171,-0.0069,-0.0007
1730000011340,49813,0.0181,-0.996,0.0863,-0.0081,0.0121,0.0041
1730000011350,49772,0.0415,-1.0072,0.0915,0.0161,-0.0245,0.0057
1730000011360,49738,0.0261,-1.0048,0.0554,0.0149,-0.0259,-0.0017
1730000011370,49710,0.0023,-0.9807,0.0616,-0.0117,-0.0113,-0.0001
1730000011380,49689,0.0052,-0.9832,0.0848,-0.0073,-0.0057,-0.0275
1730000011390,49672,0.0361,-0.9968,0.0865,0.0037,0.0011,0.0069
1730000011400,49659,0.0136,-0.9718,0.0958,0.004,-0.0031,0.0098
1730000011410,49649,0.0241,-0.9995,0.0766,0.0025,0.0152,-0.005
1730000011420,49641,0.0279,-0.9526,0.0859,-0.0013,0.0114,-0.0044
1730000011430,49634,0.0088,-1.0069,0.0663,0.0192,-0.0095,-0.0185
1730000011440,49628,0.0251,-0.9843,0.083,-0.0268,-0.0224,0.0176
1730000011450,49623,0.014,-0.9823,0.0812,-0.0277,-0.0295,0.005
1730000011460,49618,0.0169,-0.9969,0.0904,-0.0325,-0.0012,0.0117
1730000011470,49613,0.0284,-0.9966,0.0847,0.0125,-0.0175,-0.0148
1730000011480,49609,0.0286,-0.9899,0.0982,-0.0129,0.0199,0.0083
1730000011490,49604,0.0249,-0.9902,0.0705,-0.0058,-0.0099,0.0002
1730000011500,49600,0.0095,-0.9857,0.0978,-0.0176,0.0106,-0.0189
1730000011510,49595,0.025,-0.9852,0.0709,0.011,0.0021,0.0181
1730000011520,49591,0.0211,-0.9824,0.0785,-0.0224,0.052,0.0018
1730000011530,49587,0.0231,-0.9884,0.0653,-0.0272,-0.0335,0.0132
1730000011540,49583,0.025,-0.9966,0.0657,-0.0166,-0.0021,-0.0123
1730000011550,49579,0.0287,-1.0058,0.0772,-0.002,-0.0438,0.0081
1730000011560,49575,0.0204,-1.0339,0.0761,-0.0067,-0.0207,0.0035
1730000011570,49571,0.032,-0.9824,0.0659,-0.0136,-0.0396,0.002
1730000011580,49568,0.01,-0.9837,0.088,0.0176,0.0042,-0.0026
1730000011590,49564,0.0038,-0.9454,0.1021,-0.0019,0.0086,-0.0115
1730000011600,49560,0.0161,-0.9883,0.0741,0.0351,0.0062,-0.0062
1730000011610,49557,0.0159,-0.9838,0.0641,0.0096,-0.0008,0.009
1730000011620,49553,0.0236,-1.0015,0.0733,0.0277,0.0086,0.006
1730000011630,49550,0.0259,-0.99,0.0691,0.036,-0.0039,0.0129
1730000011640,49547,0.0191,-0.9659,0.0713,-0.0263,-0.0056,-0.0048
1730000011650,49544,0.0266,-0.981,0.0645,-0.0148,-0.028,-0.0075
1730000011660,49541,0.0191,-1.0001,0.0917,0.0084,-0.017,0.0129
1730000011670,49538,0.0291,-0.9835,0.0764,0.0387,0.016,-0.0108
1730000011680,49535,0.0216,-1.0039,0.0889,-0.0206,-0.0127,-0.0062
1730000011690,49532,0.0248,-1.008,0.0801,-0.043,0.017,-0.0269
1730000011700,49530,0.0218,-0.9818,0.075,0.022,0.0226,0.0107
1730000011710,49527,0.0313,-0.9801,0.0762,0.0053,0.022,-0.0005
1730000011720,49525,-0.004,-1.02,0.098,-0.0165,-0.0122,0.0094
1730000011730,49523,0.029,-0.975,0.0814,-0.0424,0.0444,-0.0038
1730000011740,49520,0.0309,-0.9831,0.0746,-0.0053,-0.0034,0.0165
1730000011750,49518,0.0071,-0.9778,0.0981,-0.0102,0.0007,-0.0117
1730000011760,49516,0.0365,-1.0082,0.0865,-0.0393,-0.0172,0.0022
1730000011770,49514,0.0089,-0.9904,0.0666,0.0018,-0.0236,-0.0106
1730000011780,49512,0.0227,-1.0232,0.0863,-0.0163,0.0319,-0.0053
1730000011790,49511,0.0112,-0.9827,0.09,-0.0487,-0.0128,0.0126
1730000011800,49509,0.0096,-1.009,0.0641,-0.0069,-0.0251,0.0045
1730000011810,49509,0.005,-0.9939,0.0781,-0.0122,-0.0048,-0.0096
1730000011820,49511,0.0111,-0.9596,0.0842,0.0084,0.0211,0.004
1730000011830,49517,0.0169,-0.9724,0.0775,0.0349,0.0042,0.0005
1730000011840,49535,0.0356,-0.9672,0.073,0.0096,-0.0256,-0.0025
1730000011850,49573,0.0218,-0.9807,0.0783,-0.0191,0.008,0.0056
1730000011860,49645,0.0133,-0.9837,0.0849,0.0098,0.0071,0.0047
1730000011870,49768,0.026,-0.9686,0.0846,-0.0102,0.0067,-0.0067
1730000011880,49951,0.0142,-0.976,0.0806,-0.0135,0.0112,-0.0076
1730000011890,50191,0.0246,-1.0092,0.0932,0.0098,0.0093,0.0002
1730000011900,50466,0.0067,-1.0157,0.0807,-0.0074,0.0065,0.0104
1730000011910,50728,0.0242,-1.0013,0.0863,-0.0122,0.008,0.006
1730000011920,50921,0.0148,-0.9527,0.0766,0.0006,0.0254,0.0019
1730000011930,50998,0.0117,-0.9886,0.0823,-0.0089,-0.0102,0.0095
1730000011940,50937,0.0181,-0.9467,0.0784,-0.0204,-0.0049,0.0093
1730000011950,50756,0.0142,-0.9588,0.0801,0.0079,-0.0145,0.0003
1730000011960,50502,0.0199,-0.96,0.0753,-0.0312,-0.0221,-0.0068
1730000011970,50232,0.0264,-0.9986,0.0702,-0.0061,-0.0004,-0.0009
1730000011980,49996,0.0072,-0.9867,0.0895,0.0079,0.0077,-0.0076
1730000011990,49820,0.0172,-1.0052,0.0857,0.0169,-0.0046,-0.0038
1730000012000,49712,0.0117,-0.9824,0.0967,-0.0144,0.0044,0.0091
1730000012010,49662,0.019,-1.006,0.0834,0.0305,0.0031,-0.0004
1730000012020,49654,0.0195,-1.0221,0.0832,-0.0096,-0.0183,0.0123
1730000012030,49674,0.0105,-0.9773,0.0676,0.0067,-0.0282,0.0022
1730000012040,49711,0.0212,-0.9643,0.067,-0.0088,-0.0165,0.0072
1730000012050,49755,0.0027,-0.9867,0.0849,0.0035,-0.0307,0.0111
1730000012060,49799,0.0206,-0.9586,0.0758,0.0007,0.0039,-0.0044
1730000012070,49837,0.0421,-0.9838,0.0834,-0.0129,-0.0111,-0.0015
1730000012080,49865,0.0128,-0.9971,0.0804,-0.0083,0.0425,-0.0018
1730000012090,49879,0.0134,-0.9656,0.0975,-0.0321,0.0245,-0.0106
1730000012100,49878,0.0151,-1.0055,0.0753,-0.0277,-0.0122,-0.0034
1730000012110,49862,0.0185,-0.9723,0.0826,-0.0016,0.0259,0.0017
1730000012120,49833,0.0321,-0.9746,0.0736,-0.0272,-0.0559,-0.0043
1730000012130,49795,0.0084,-0.9774,0.0928,-0.0452,0.0135,-0.0151
1730000012140,49752,0.0015,-0.9319,0.0876,-0.0595,0.0268,-0.0023
1730000012150,49707,0.0349,-0.995,0.082,0.0024,-0.0414,0.0013
1730000012160,49666,0.028,-0.9954,0.0853,0.0132,0.0004,0.0113
1730000012170,49629,0.0264,-0.9437,0.0826,0.0208,-0.0029,0.0068
1730000012180,49600,0.0234,-0.967,0.0874,-0.0063,-0.0064,-0.018
1730000012190,49577,0.0223,-0.999,0.0723,-0.0077,0.0131,0.0057
1730000012200,49561,0.0246,-0.979,0.0828,-0.0178,0.0308,0.0162
1730000012210,49550,0.014,-1.0,0.0684,-0.0186,-0.0186,0.003
1730000012220,49544,0.0218,-0.958,0.0818,0.0042,-0.006,0.0156
1730000012230,49541,0.0361,-0.9905,0.083,-0.0052,-0.0053,-0.0056
1730000012240,49541,0.0085,-0.9799,0.0894,0.0275,0.0189,0.0014
1730000012250,49542,0.0335,-0.9758,0.0788,-0.0266,0.0237,0.0101
1730000012260,49543,0.0105,-0.9992,0.0999,0.0045,-0.0215,-0.0031
1730000012270,49546,0.0258,-0.9523,0.0881,0.0322,0.0145,0.0045
1730000012280,49549,0.0322,-0.9836,0.0742,-0.0282,0.0153,-0.007
1730000012290,49552,0.0225,-0.9713,0.0766,-0.0081,0.0198,0.0162
1730000012300,49555,0.0158,-0.9888,0.0993,0.0018,-0.0112,-0.0033
1730000012310,49558,0.0285,-0.9747,0.0809,-0.0258,-0.0156,0.0111
1730000012320,49562,0.0242,-0.9526,0.063,-0.0116,0.0062,0.0067
1730000012330,49566,0.0408,-0.9686,0.0711,-0.0152,-0.0268,0.0134
1730000012340,49569,0.0185,-0.9852,0.0915,0.0269,-0.0064,-0.0052
1730000012350,49573,0.0229,-1.006,0.085,0.0136,0.0037,0.0071
1730000012360,49577,0.0202,-0.9685,0.0939,0.0022,0.0325,0.0086
1730000012370,49581,0.0174,-0.9726,0.0732,0.0243,0.0555,-0.0025
1730000012380,49585,0.023,-0.9618,0.0809,-0.0033,0.0127,-0.0146
1730000012390,49589,0.0113,-0.9667,0.0807,0.004,0.0117,0.012
1730000012400,49593,0.0095,-0.9848,0.0907,0.0018,0.0038,0.0121
1730000012410,49597,0.0017,-0.9412,0.082,-0.0255,0.0243,0.018
1730000012420,49602,0.0351,-0.9758,0.087,0.0107,-0.0274,0.0256
1730000012430,49606,0.0101,-0.9293,0.0797,0.0053,-0.0051,0.014
1730000012440,49611,0.0379,-0.9668,0.0737,-0.014,0.0134,-0.0223
1730000012450,49615,0.0039,-0.97,0.0831,-0.0097,-0.0086,-0.0172
1730000012460,49620,0.0161,-0.9732,0.0829,0.0115,-0.039,0.0156
1730000012470,49625,-0.0011,-0.9596,0.0755,0.0197,0.011,-0.0019
1730000012480,49630,0.0169,-1.003,0.0791,-0.0146,-0.0189,-0.0112
1730000012490,49634,0.0201,-0.978,0.0887,-0.0108,-0.0298,-0.0079
1730000012500,49639,0.0203,-1.006,0.0931,-0.0047,-0.0028,0.0013
1730000012510,49645,0.0266,-0.9561,0.0724,-0.0144,0.0393,-0.0211
1730000012520,49650,0.0098,-0.9869,0.089,0.0056,0.0063,-0.0087
1730000012530,49655,0.0232,-0.9882,0.0744,-0.0153,-0.0145,-0.01
1730000012540,49660,0.0221,-0.9629,0.0718,-0.0093,0.0085,0.0015
1730000012550,49665,0.0343,-0.9738,0.0832,0.0132,-0.02,-0.0109
1730000012560,49671,0.0062,-0.9603,0.078,0.005,0.0024,0.002
1730000012570,49676,0.0263,-0.9764,0.0875,0.0121,-0.0278,-0.0024
1730000012580,49682,0.0355,-0.8964,0.0795,0.0005,-0.0328,0.0011
1730000012590,49687,0.0193,-0.9794,0.0977,0.0042,-0.0199,-0.0109
1730000012600,49693,0.0274,-0.9805,0.0706,-0.0337,-0.0027,0.006
1730000012610,49699,0.0281,-0.9629,0.0965,-0.0238,0.0039,0.0038
1730000012620,49706,0.0036,-0.9714,0.069,0.0045,-0.0167,0.0065
1730000012630,49714,0.0359,-0.9719,0.0735,-0.0243,0.0079,-0.0093
1730000012640,49725,0.0293,-0.9342,0.0973,0.0364,0.0022,0.0046
1730000012650,49746,0.0121,-0.9938,0.0874,-0.0285,0.0198,-0.0086
1730000012660,49782,0.0179,-0.9324,0.0826,0.0102,-0.0054,0.0086
1730000012670,49849,0.0174,-0.9856,0.0701,-0.0313,-0.0252,0.0067
1730000012680,49961,0.0192,-0.986,0.0878,0.0036,0.0089,-0.0099
1730000012690,50131,0.0154,-0.9598,0.0773,0.0201,0.0155,0.015
1730000012700,50364,0.0231,-0.9795,0.0805,0.0465,0.0217,-0.0015
1730000012710,50641,0.0271,-0.9706,0.0768,0.0226,0.0085,0.0093
1730000012720,50922,0.0375,-0.9763,0.0831,0.019,0.0159,-0.0037
1730000012730,51150,0.0205,-0.9278,0.0744,0.0093,0.0099,-0.0143
1730000012740,51272,0.0265,-0.9931,0.0821,0.0247,-0.0099,-0.0152
1730000012750,51255,0.0198,-0.9665,0.0812,0.0045,0.0057,-0.0146
1730000012760,51109,0.0307,-1.0094,0.0764,0.0161,-0.0153,-0.0145
1730000012770,50873,0.0125,-0.9757,0.1001,-0.0299,0.0084,-0.002
1730000012780,50606,0.0118,-0.9935,0.0681,0.0069,0.0135,0.0131
1730000012790,50362,0.0104,-1.0082,0.0858,0.0105,0.0237,-0.0189
1730000012800,50176,0.035,-0.9631,0.1002,-0.0042,0.0278,-0.0058
1730000012810,50058,0.0415,-0.9759,0.0648,0.0048,0.0228,0.0127
1730000012820,50002,0.0194,-0.9576,0.0799,0.0269,0.0209,-0.005
1730000012830,49993,0.0297,-0.9659,0.0919,-0.0076,0.0018,-0.0057
1730000012840,50015,0.0044,-0.9898,0.0912,0.0124,-0.0158,0.0049
1730000012850,50056,0.0203,-0.95,0.0756,-0.0002,-0.023,0.0115
1730000012860,50105,0.0252,-0.963,0.1045,0.0236,0.0286,0.0033
1730000012870,50155,0.0149,-0.9562,0.0805,-0.0068,0.0238,-0.0031
1730000012880,50201,0.0225,-0.9627,0.065,0.0107,0.0155,0.0006
1730000012890,50237,0.0226,-0.9716,0.0738,-0.0125,-0.036,0.0054
1730000012900,50259,0.0067,-0.9741,0.0592,-0.0133,0.0109,0.0009
1730000012910,50266,0.0203,-0.9604,0.0631,0.0175,-0.0084,0.0003
1730000012920,50258,0.0244,-1.0182,0.0942,-0.0068,0.0112,-0.0034
1730000012930,50235,0.0138,-0.9387,0.068,0.0059,-0.0106,0.0052
1730000012940,50203,0.029,-0.9512,0.0856,-0.012,-0.0049,0.0033
1730000012950,50165,0.032,-0.9556,0.0781,0.0042,0.0183,0.0047
1730000012960,50125,0.029,-0.9731,0.0891,-0.0071,0.0019,0.0058
1730000012970,50088,0.0067,-0.9701,0.0827,0.0033,0.0166,-0.0232
1730000012980,50056,0.0034,-0.9451,0.0874,0.0389,-0.0023,0.012
1730000012990,50030,0.0423,-1.0107,0.0634,-0.01,-0.0284,0.0152
1730000013000,50012,0.0173,-0.979,0.0924,0.013,-0.0117,0.0068
1730000013010,50000,0.0108,-0.979,0.0918,-0.0169,-0.01,-0.0046
1730000013020,49994,0.0144,-1.0159,0.0644,0.003,0.0275,0.0069
1730000013030,49992,0.0148,-0.9676,0.0632,-0.0051,-0.0048,-0.0059
1730000013040,49993,0.0259,-0.9572,0.0855,0.0441,0.0107,-0.0197
1730000013050,49997,0.006,-0.9663,0.0711,-0.0051,0.0283,0.0008
1730000013060,50002,0.0079,-0.9364,0.078,-0.001,0.0043,0.0051
1730000013070,50008,0.0126,-0.9639,0.0924,0.0246,-0.0164,0.0002
1730000013080,50015,0.0352,-0.9703,0.0666,-0.013,0.0119,-0.001
1730000013090,50022,0.0204,-0.9599,0.0772,0.01,0.0265,0.0043
1730000013100,50029,0.0252,-0.9427,0.0873,0.0226,-0.0404,0.0003
1730000013110,50036,0.024,-0.9679,0.0715,-0.0027,-0.0148,0.0034
1730000013120,50043,0.0268,-0.9701,0.0906,-0.0105,-0.012,0.0008
1730000013130,50050,0.016,-0.9455,0.0783,0.0107,0.0188,-0.0163
1730000013140,50057,0.0195,-0.963,0.0615,0.0011,-0.0039,-0.0144
1730000013150,50064,0.0333,-0.9629,0.0575,-0.0095,-0.0065,-0.0011
1730000013160,50071,0.0124,-0.9869,0.0825,-0.0193,0.0193,0.0049
1730000013170,50078,0.0224,-0.9769,0.0811,0.0012,0.003,-0.0161
1730000013180,50085,0.0199,-1.0111,0.0812,0.0494,-0.0195,-0.0081
1730000013190,50092,0.0283,-0.9825,0.0697,-0.0047,0.0031,0.0087
1730000013200,50099,0.0153,-0.9778,0.0774,-0.0141,0.006,0.0137
1730000013210,50106,0.0117,-0.9889,0.0793,-0.0116,-0.0286,-0.0133
1730000013220,50113,0.0014,-0.9672,0.0726,0.0358,0.0079,-0.0102
1730000013230,50120,0.009,-0.9753,0.0664,-0.0016,0.022,-0.0032
1730000013240,50127,0.013,-1.0055,0.0653,0.0017,-0.0026,0.0019
1730000013250,50134,0.0057,-0.9487,0.075,-0.0369,-0.0222,-0.0064
1730000013260,50141,0.0192,-0.9995,0.0888,-0.0003,0.017,0.0144
1730000013270,50148,0.017,-0.979,0.0858,-0.0348,0.0216,-0.0006
1730000013280,50155,0.0157,-0.9891,0.0669,-0.0062,0.0092,-0.0002
1730000013290,50161,-0.0031,-0.9803,0.0851,0.0367,-0.003,0.0038
1730000013300,50168,0.02,-0.9747,0.0685,-0.0184,-0.0268,0.0046
1730000013310,50175,0.0285,-0.9705,0.0736,0.0202,0.0443,-0.0175
1730000013320,50182,0.0256,-0.9641,0.0832,0.0138,0.0308,-0.0013
1730000013330,50188,0.0415,-0.9906,0.0876,-0.0286,-0.0284,0.0042
1730000013340,50195,0.0272,-0.9787,0.0856,-0.0145,0.0222,-0.0148
1730000013350,50201,0.0221,-0.9615,0.0821,0.0,-0.0024,-0.0257
1730000013360,50208,0.0053,-0.9474,0.0869,0.0272,0.0012,0.0169
1730000013370,50214,0.0186,-0.9468,0.0753,-0.011,0.0181,-0.0145
1730000013380,50221,0.0352,-0.9307,0.0799,0.0276,-0.0107,-0.0025
1730000013390,50227,0.0224,-0.9788,0.087,0.0179,0.013,-0.0051
1730000013400,50233,0.0048,-0.9595,0.0765,-0.0323,-0.0241,-0.0029
1730000013410,50240,0.0352,-0.9604,0.0712,-0.0216,-0.0199,-0.0102
1730000013420,50246,0.0216,-0.9459,0.1071,0.0353,-0.0096,0.0094
1730000013430,50253,0.021,-0.9335,0.0851,-0.0099,0.0193,-0.0079
1730000013440,50261,0.0137,-0.9747,0.0773,-0.0416,0.0203,0.0267
1730000013450,50271,0.0076,-0.9415,0.063,-0.0016,-0.0166,0.0019
1730000013460,50287,0.0252,-0.9946,0.0784,0.0147,-0.0186,0.0124
1730000013470,50315,0.0328,-0.9784,0.0942,-0.0389,-0.0123,0.0054
1730000013480,50365,0.0295,-0.947,0.0898,0.0008,0.0138,0.0003
1730000013490,50451,0.0053,-0.9511,0.0857,-0.0025,-0.0115,0.0195
1730000013500,50586,0.0107,-0.9679,0.073,-0.0011,0.0227,0.0041
1730000013510,50778,0.0169,-0.9533,0.0893,-0.0013,-0.0086,-0.0073
1730000013520,51024,0.0011,-0.9387,0.0729,-0.0232,-0.017,-0.0114
1730000013530,51297,0.0311,-0.9716,0.0702,-0.0161,-0.02,0.0112
1730000013540,51556,0.0057,-0.9684,0.0849,0.0074,0.0045,-0.0014
1730000013550,51748,-0.0035,-0.9706,0.075,-0.0264,0.0289,0.0126
1730000013560,51828,0.0163,-0.9633,0.08,-0.0378,-0.0086,0.0087
1730000013570,51779,0.0189,-0.9906,0.0913,0.007,-0.0232,-0.0057
1730000013580,51615,0.0158,-0.9905,0.0876,-0.0108,0.0027,0.0178
1730000013590,51378,0.0133,-0.9931,0.08,-0.009,-0.0067,-0.0091
1730000013600,51120,0.0045,-0.9791,0.0671,-0.022,0.0568,0.0242
1730000013610,50888,0.0438,-0.9775,0.069,0.0111,-0.0206,-0.0028
1730000013620,50711,0.0107,-0.9537,0.0789,0.0065,-0.0121,-0.002
1730000013630,50597,0.0019,-0.9738,0.0769,0.0083,-0.0094,-0.0099
1730000013640,50540,0.0208,-0.9428,0.0786,0.0356,-0.05,-0.0087
1730000013650,50527,0.0173,-0.9988,0.0526,0.001,-0.0199,-0.008
1730000013660,50544,0.0186,-0.9767,0.0738,0.0124,-0.0157,0.0114
1730000013670,50580,0.0322,-1.0042,0.0712,0.0185,-0.0255,-0.0058
1730000013680,50624,0.0216,-0.9527,0.0917,-0.0029,0.0108,0.0033
1730000013690,50671,0.0363,-0.9732,0.0787,-0.0039,-0.0259,-0.013
1730000013700,50714,-0.0069,-0.9438,0.0996,-0.0344,0.017,0.004
1730000013710,50750,0.018,-0.961,0.079,0.053,0.0181,-0.0079
1730000013720,50773,0.0091,-0.946,0.0773,-0.0043,0.003,0.0007
1730000013730,50783,0.0316,-0.9927,0.057,-0.0111,-0.0159,-0.0064
1730000013740,50777,0.0034,-0.9929,0.0654,0.0192,-0.0218,-0.0023
1730000013750,50758,0.0344,-0.9811,0.0837,0.0201,0.0115,-0.0058
1730000013760,50728,0.0096,-0.9487,0.0819,-0.0144,-0.007,-0.0005
1730000013770,50691,0.0022,-0.965,0.0904,-0.0131,-0.0168,-0.0041
1730000013780,50650,0.018,-0.9346,0.0885,0.0036,-0.0123,0.0008
1730000013790,50609,0.0182,-0.9984,0.0757,0.0088,-0.0214,-0.0132
1730000013800,50572,0.0184,-0.9833,0.0628,0.0238,0.0235,0.0209
1730000013810,50539,0.0154,-0.9642,0.0923,0.0108,0.023,0.0016
1730000013820,50513,0.0151,-0.9664,0.0849,0.0136,0.0218,0.0016
1730000013830,50494,0.0179,-0.9525,0.0785,-0.0164,0.019,-0.0213
1730000013840,50480,0.0312,-0.9594,0.08,0.0228,-0.008,0.003
1730000013850,50471,0.0056,-1.0012,0.0845,-0.0082,-0.0229,0.0093
1730000013860,50466,0.0192,-0.9901,0.0784,0.0301,0.0216,0.0005
1730000013870,50463,0.0264,-0.9886,0.098,0.0262,-0.0072,0.002
1730000013880,50463,0.0292,-0.9579,0.0901,0.0137,0.0069,-0.0159
1730000013890,50464,0.0346,-0.9842,0.0824,-0.0006,0.021,-0.0042
1730000013900,50465,0.0084,-0.9483,0.087,0.0309,-0.0009,0.0034
1730000013910,50467,0.029,-0.9983,0.0645,-0.0165,-0.0128,0.0178
1730000013920,50469,0.0457,-0.9823,0.0809,-0.0064,-0.0049,0.0034
1730000013930,50471,0.0234,-0.9854,0.0789,-0.0121,-0.0146,-0.004
1730000013940,50473,0.0269,-0.9689,0.0748,0.0194,0.0012,0.0096
1730000013950,50475,0.0181,-0.9428,0.094,0.0145,0.0288,-0.0065
1730000013960,50477,0.0374,-1.0035,0.0808,-0.0123,-0.0381,-0.013
1730000013970,50479,0.0156,-0.9695,0.0763,0.0188,-0.0066,-0.0093
1730000013980,50481,0.0336,-0.9554,0.0775,-0.0323,-0.0218,-0.0052
1730000013990,50483,0.0208,-0.9558,0.0807,0.0058,0.0086,-0.0118
1730000014000,50484,0.0313,-0.9496,0.0852,0.031,-0.005,0.0001
1730000014010,50486,0.0337,-0.9836,0.0739,0.0357,-0.0031,-0.008
1730000014020,50487,0.0199,-1.0233,0.0905,0.027,-0.0249,-0.0067
1730000014030,50489,0.0386,-0.9614,0.0767,-0.0033,0.008,0.0142
1730000014040,50490,0.0277,-0.9696,0.078,0.0309,0.0116,-0.011
1730000014050,50491,0.0161,-0.9451,0.0618,-0.0212,0.011,-0.0014
1730000014060,50492,0.0087,-1.0515,0.0767,0.0236,-0.02,-0.0115
1730000014070,50493,0.0277,-0.9536,0.0712,-0.007,-0.0304,-0.0
1730000014080,50494,0.0125,-0.9853,0.0555,0.0183,-0.0369,-0.0135
1730000014090,50494,0.0176,-1.0225,0.0639,-0.0189,-0.0368,-0.0071
1730000014100,50495,0.0189,-0.9483,0.0887,-0.0492,-0.0042,-0.0086
1730000014110,50495,0.0246,-0.9894,0.0835,0.013,-0.0078,-0.0165
1730000014120,50496,0.0159,-0.9704,0.0857,-0.0037,0.0133,-0.001
1730000014130,50496,0.0071,-0.9796,0.0883,0.0262,-0.0117,0.0012
1730000014140,50496,0.0176,-1.0103,0.0832,-0.0187,0.0014,-0.0067
1730000014150,50496,0.0141,-0.9847,0.0808,0.0099,-0.0082,-0.0028
1730000014160,50496,0.0237,-0.9921,0.0802,-0.0115,-0.001,0.0082
1730000014170,50496,0.0281,-0.9676,0.0921,0.003,0.0198,-0.0032
1730000014180,50496,0.0301,-0.9691,0.0966,0.0167,0.0136,0.0032
1730000014190,50495,0.015,-0.9974,0.0885,-0.0256,0.0313,0.0021
1730000014200,50495,0.0261,-0.9652,0.0825,-0.0016,-0.043,0.0036
1730000014210,50494,0.0256,-1.0142,0.0819,-0.0021,0.0208,-0.0171
1730000014220,50494,0.0144,-0.989,0.0714,0.0037,-0.0412,-0.0227
1730000014230,50493,0.0197,-0.9743,0.0717,0.0074,0.0061,0.0058
1730000014240,50492,0.0208,-1.0197,0.08,0.0026,0.03,-0.015
1730000014250,50491,0.0429,-0.9874,0.0694,-0.0057,0.0224,0.0005
1730000014260,50490,0.0125,-0.9722,0.0898,0.0001,0.0341,0.0211
1730000014270,50490,-0.0042,-0.9856,0.0985,0.01,0.0297,0.0057
1730000014280,50489,0.0055,-0.999,0.0799,0.0267,-0.0013,-0.0048
1730000014290,50491,0.0146,-0.9828,0.0821,0.0459,-0.0028,-0.0124
1730000014300,50496,0.0262,-0.9814,0.0817,-0.0143,0.0094,-0.0049
1730000014310,50510,0.0146,-0.9988,0.0898,-0.0287,-0.0018,-0.0026
1730000014320,50540,0.0275,-0.9908,0.0891,-0.0153,0.0086,0.0028
1730000014330,50597,0.0209,-0.9561,0.0853,0.0053,0.022,0.0039
1730000014340,50694,0.0175,-0.9683,0.1023,-0.0112,0.0129,0.0014
1730000014350,50842,0.0209,-1.0256,0.0736,-0.0161,0.0287,-0.0112
1730000014360,51043,0.0333,-1.007,0.0783,-0.0081,-0.0111,-0.0156
1730000014370,51288,0.0339,-0.9658,0.092,0.0193,0.0182,0.0124
1730000014380,51546,0.0124,-0.977,0.0945,0.007,-0.0036,-0.0088
1730000014390,51774,0.0174,-0.998,0.0501,0.0095,0.0305,0.0063
1730000014400,51924,0.0218,-1.0033,0.0776,0.0281,-0.0274,0.0227
1730000014410,51962,0.005,-0.9718,0.0733,-0.009,-0.0431,0.0095
1730000014420,51879,0.0243,-0.9677,0.075,0.0268,0.0037,-0.0017
1730000014430,51694,0.015,-0.9646,0.0836,0.0085,-0.0296,-0.0006
1730000014440,51448,0.01,-1.0057,0.0615,0.0118,-0.0021,0.0
1730000014450,51192,0.0102,-0.986,0.0701,-0.0017,0.0126,0.0038
1730000014460,50964,0.0259,-1.0034,0.0606,0.0056,-0.0213,-0.0032
1730000014470,50789,0.0082,-0.9947,0.0867,-0.0066,-0.0245,0.0015
1730000014480,50673,0.0227,-0.9899,0.0828,0.0248,0.0333,0.0071
1730000014490,50611,0.0165,-0.9832,0.0661,0.0002,0.0372,-0.0005
1730000014500,50590,0.0199,-1.0063,0.0912,-0.0057,0.0061,-0.0035
1730000014510,50598,0.0079,-0.9943,0.0699,-0.0135,-0.0114,0.0172
1730000014520,50623,0.0265,-0.9846,0.0737,0.0122,-0.0027,0.0122
1730000014530,50657,0.0178,-0.9567,0.0777,0.0018,-0.0093,-0.0003
1730000014540,50695,0.0102,-1.0142,0.0634,-0.0168,-0.0189,0.0029
1730000014550,50730,0.0136,-0.9945,0.0931,0.0119,-0.0313,0.0041
1730000014560,50758,0.026,-0.9944,0.0705,0.0072,-0.0051,0.0027
1730000014570,50775,0.0258,-0.9833,0.0751,-0.0323,0.0019,-0.0012
1730000014580,50780,0.0184,-0.9853,0.0853,-0.0215,0.0169,0.0035
1730000014590,50771,0.0216,-0.9907,0.1019,0.009,-0.0017,-0.0159
1730000014600,50749,0.0173,-0.9824,0.0673,-0.0029,0.0028,0.0079
1730000014610,50715,0.0049,-0.996,0.0776,0.0001,0.0084,0.0088
1730000014620,50673,0.031,-0.9405,0.0822,0.0091,-0.0025,-0.0008
1730000014630,50626,0.0109,-0.9961,0.0735,-0.0255,0.0032,-0.0056
1730000014640,50578,0.022,-0.9984,0.085,0.0288,0.0106,-0.0036
1730000014650,50531,0.0163,-0.9886,0.0758,-0.0069,0.0229,0.0029
1730000014660,50489,0.0153,-0.9892,0.0788,-0.0101,0.005,-0.004
1730000014670,50453,0.0141,-0.9787,0.0732,0.0278,-0.0247,0.0046
1730000014680,50422,0.024,-0.986,0.083,0.0181,-0.0052,-0.0038
1730000014690,50397,0.0167,-0.9534,0.0696,0.0216,-0.0166,0.0054
1730000014700,50378,0.0311,-1.0178,0.0712,0.0174,0.024,-0.0059
1730000014710,50362,0.0375,-0.9989,0.0838,0.0255,-0.0148,0.0166
1730000014720,50350,0.0125,-0.9955,0.0761,0.0465,0.0006,0.0087
1730000014730,50341,0.0317,-1.0022,0.089,-0.0063,-0.0345,-0.0037
1730000014740,50333,0.0205,-1.0385,0.0681,-0.0015,0.0086,0.0063
1730000014750,50326,0.0198,-1.007,0.0858,-0.0273,0.0142,-0.0152
1730000014760,50319,0.0291,-1.012,0.0956,-0.0085,-0.0124,-0.0102
1730000014770,50313,0.0257,-1.0181,0.0774,0.0085,-0.0178,-0.0091
1730000014780,50307,0.0149,-1.0213,0.0728,-0.0003,-0.0312,0.0001
1730000014790,50302,0.0208,-0.9905,0.0799,-0.0469,-0.018,0.0031
1730000014800,50296,0.0183,-1.017,0.0958,0.0248,-0.0275,-0.0015
1730000014810,50290,0.0254,-0.962,0.0587,0.0127,-0.0078,0.0016
1730000014820,50284,0.017,-0.9613,0.0995,-0.0056,-0.0187,0.0255
1730000014830,50278,0.0243,-1.016,0.0912,-0.0041,-0.0067,0.0106
1730000014840,50272,0.0028,-0.9758,0.0818,0.007,0.0038,-0.0166
1730000014850,50266,0.0123,-0.9871,0.0851,-0.0013,-0.0332,-0.0027
1730000014860,50260,0.012,-1.0101,0.0848,0.006,-0.0302,-0.0013
1730000014870,50254,0.0257,-0.9909,0.0783,0.0002,-0.0237,0.0189
1730000014880,50248,0.0213,-1.0122,0.0615,-0.0355,-0.0126,0.0103
1730000014890,50242,0.0143,-1.0001,0.0698,0.0297,0.0448,-0.0274
1730000014900,50236,0.0163,-0.9851,0.0849,-0.0103,-0.0096,0.0067
1730000014910,50229,0.0351,-1.0306,0.073,0.0091,-0.0205,-0.0055
1730000014920,50223,0.0332,-0.9893,0.0747,0.0095,-0.0272,0.0016
1730000014930,50217,0.0245,-0.9709,0.0864,0.0027,-0.0039,-0.0025
1730000014940,50210,0.0322,-0.9702,0.0854,0.0007,-0.0172,-0.0135
1730000014950,50204,0.0154,-0.9794,0.0816,0.0255,-0.0038,-0.0163
1730000014960,50197,0.0131,-0.9783,0.0825,0.0024,-0.0009,-0.0051
1730000014970,50191,0.0264,-1.0055,0.0839,0.0004,-0.0322,0.0154
1730000014980,50184,0.0175,-0.9782,0.0859,-0.0005,-0.0092,0.002
1730000014990,50177,0.0147,-1.0118,0.0749,-0.0335,-0.0202,-0.0014
1730000015000,50171,0.0256,-1.0355,0.0848,0.0265,0.0176,0.0136
1730000015010,50164,0.0079,-1.0144,0.0659,0.0273,0.0437,-0.0161
1730000015020,50157,0.0183,-1.0218,0.0612,-0.0191,0.0295,-0.005
1730000015030,50150,0.028,-0.9819,0.0716,0.0267,-0.0219,-0.0052
1730000015040,50143,0.0244,-1.001,0.0775,0.0162,0.023,-0.0181
1730000015050,50137,0.0203,-0.9697,0.0958,-0.0504,-0.0154,0.0008
1730000015060,50130,0.0158,-0.9805,0.0848,0.0109,-0.0048,-0.0018
1730000015070,50123,0.0293,-0.9843,0.0833,0.0021,-0.0153,-0.0076
1730000015080,50116,0.0213,-0.9742,0.0699,0.0065,0.0079,-0.0026
1730000015090,50109,0.0188,-0.982,0.0722,0.0278,-0.0349,0.0066
1730000015100,50102,0.0269,-0.9671,0.0596,-0.0212,0.0216,-0.0078
1730000015110,50095,0.0197,-0.9733,0.0693,-0.0209,-0.0198,-0.0004
1730000015120,50088,0.0125,-0.9936,0.0789,0.01,-0.0132,0.0055
1730000015130,50081,0.0285,-0.9769,0.0844,-0.0086,0.0021,-0.014
1730000015140,50075,0.0231,-0.9765,0.0734,0.0278,0.0167,0.0196
1730000015150,50071,0.0088,-0.9931,0.0734,-0.0083,0.0154,0.0115
1730000015160,50070,0.0197,-1.0012,0.0691,-0.001,0.0055,0.0063
1730000015170,50079,0.0293,-1.0057,0.0732,0.0266,0.0053,-0.0171
1730000015180,50105,0.036,-1.0081,0.0881,-0.0066,0.0011,0.0167
1730000015190,50160,0.0018,-1.0008,0.0727,-0.0055,-0.0063,0.0092
1730000015200,50259,0.0243,-1.0037,0.0951,0.0168,-0.0176,-0.0037
1730000015210,50413,0.0132,-0.9899,0.0761,0.0149,-0.0106,0.0001
1730000015220,50626,0.014,-1.0063,0.0885,-0.0302,0.0047,0.0082
1730000015230,50880,0.0331,-1.0128,0.0922,-0.0022,0.0018,0.0028
1730000015240,51141,0.0068,-0.9677,0.087,-0.0132,-0.0118,0.0236
1730000015250,51355,0.018,-0.9953,0.0637,-0.0046,0.0104,-0.0055
1730000015260,51474,0.0215,-0.9873,0.0763,0.0201,-0.0038,-0.0009
1730000015270,51465,0.0199,-1.0297,0.0858,0.0154,0.0155,0.0044
1730000015280,51330,0.0191,-0.9827,0.1073,-0.022,0.0121,0.0049
1730000015290,51102,0.0284,-1.022,0.1001,0.0258,-0.0046,0.0183
1730000015300,50832,0.0217,-0.951,0.0822,-0.0402,-0.0005,-0.0045
1730000015310,50572,0.0063,-1.013,0.0828,-0.015,0.02,-0.0168
1730000015320,50359,0.0175,-0.9837,0.0841,-0.0112,0.0054,-0.0104
1730000015330,50209,0.013,-1.0214,0.0931,-0.0081,-0.0199,-0.0029
1730000015340,50120,0.0336,-0.9578,0.0711,0.0362,-0.0011,0.0115
1730000015350,50081,0.0288,-1.0081,0.0731,-0.0334,0.0008,0.0041
1730000015360,50077,0.018,-1.0174,0.0845,0.0162,0.0034,-0.0062
1730000015370,50096,0.0234,-1.0113,0.0828,0.0076,0.0212,0.0186
1730000015380,50127,0.0385,-0.9747,0.0747,0.0134,-0.0282,-0.0001
1730000015390,50162,0.0188,-1.0023,0.085,-0.0086,0.0402,-0.0017
1730000015400,50196,0.039,-0.9863,0.0701,0.0023,0.0429,-0.0015
1730000015410,50223,0.0209,-0.9809,0.088,0.0151,-0.0338,-0.0073
1730000015420,50240,0.0147,-0.9311,0.072,0.0028,0.0538,0.0051
1730000015430,50243,0.0335,-0.9747,0.0642,-0.0093,-0.0049,-0.018
1730000015440,50231,-0.0008,-0.9716,0.0992,-0.0213,-0.0023,0.0146
1730000015450,50205,0.0305,-1.0197,0.0796,0.0082,-0.0376,-0.0054
1730000015460,50167,0.0144,-1.0373,0.072,0.0025,0.0085,-0.013
1730000015470,50120,0.0254,-0.9951,0.0787,-0.0119,-0.0434,0.0086
1730000015480,50069,0.0247,-0.9914,0.0747,-0.0271,0.0081,-0.0047
1730000015490,50017,0.0258,-0.9773,0.075,-0.0146,-0.0033,0.0033
1730000015500,49968,0.0028,-0.9869,0.0654,-0.0073,0.0462,-0.0099
1730000015510,49924,0.0098,-0.9986,0.0778,-0.026,0.0068,0.0064
1730000015520,49886,0.0251,-0.9833,0.0773,-0.0189,0.0007,0.0052
1730000015530,49855,0.0115,-0.9943,0.0801,0.0453,0.0226,0.0135
1730000015540,49830,0.027,-1.0022,0.0861,0.0305,-0.0198,0.0006
1730000015550,49810,0.0213,-0.9785,0.0917,-0.004,-0.0031,0.0315
1730000015560,49795,0.0152,-1.017,0.0814,-0.0112,-0.0034,-0.0012
1730000015570,49783,-0.0028,-0.9877,0.0823,0.0237,0.0035,0.0116
1730000015580,49773,0.0364,-0.9787,0.0846,-0.0066,0.0125,-0.0033
1730000015590,49764,-0.0035,-0.9915,0.0914,0.0177,-0.0054,-0.0079
1730000015600,49757,0.0173,-0.9895,0.0683,-0.0201,-0.0016,0.0022
1730000015610,49750,0.0258,-1.0047,0.0607,-0.0039,0.0196,-0.0148
1730000015620,49743,0.0114,-1.0018,0.0965,0.0222,-0.0066,0.0078
1730000015630,49737,0.013,-0.9889,0.0616,-0.0196,-0.0191,-0.0117
1730000015640,49731,0.0256,-1.0079,0.0901,0.0111,0.0048,0.0117
1730000015650,49725,0.0225,-1.0021,0.0757,0.0133,-0.0255,0.0091
1730000015660,49719,0.018,-0.9753,0.0812,-0.0156,0.0318,-0.0024
1730000015670,49713,0.023,-0.9981,0.072,0.0019,-0.01,-0.0006
1730000015680,49707,0.0213,-0.9979,0.0898,0.012,-0.0411,-0.0091
1730000015690,49701,0.0163,-1.0067,0.0727,0.0129,0.0097,-0.0161
1730000015700,49695,0.007,-0.9818,0.077,0.0164,-0.0131,0.0003
1730000015710,49689,0.0113,-0.9923,0.086,0.0076,-0.0222,0.0104
1730000015720,49684,0.0194,-0.9777,0.0843,-0.0091,0.0174,-0.0073
1730000015730,49678,0.0162,-1.0106,0.0645,0.0439,-0.0033,-0.0041
1730000015740,49673,0.0388,-1.0208,0.0922,0.0049,-0.0028,-0.0023
1730000015750,49667,0.017,-0.956,0.0901,-0.0027,-0.0158,0.0002
1730000015760,49662,0.0099,-1.0018,0.077,-0.0152,-0.013,-0.0036
1730000015770,49657,0.0096,-0.9549,0.0587,0.014,0.0134,-0.0018
1730000015780,49652,0.0184,-0.9823,0.0804,0.0139,0.0108,-0.0041
1730000015790,49646,0.0101,-0.9786,0.0857,0.0157,-0.0111,0.0248
1730000015800,49641,0.0027,-0.9478,0.0719,-0.0021,0.035,0.0186
1730000015810,49636,0.0356,-0.9685,0.0841,-0.0278,-0.0238,-0.0008
1730000015820,49631,0.0261,-0.9698,0.0885,0.0279,0.0284,0.0004
1730000015830,49626,-0.0009,-0.9638,0.0778,-0.0097,0.0034,-0.0129
1730000015840,49622,0.0177,-1.0127,0.0568,-0.0141,0.0292,0.0012
1730000015850,49617,0.0277,-0.9859,0.084,-0.0379,-0.0146,-0.0088
1730000015860,49612,0.0063,-0.9811,0.0839,0.0069,-0.0012,0.007
1730000015870,49608,0.0206,-0.9777,0.0741,0.0108,0.0084,-0.0103
1730000015880,49603,0.0134,-0.9615,0.0669,-0.0083,0.0204,0.0067
1730000015890,49599,0.0298,-0.9705,0.0764,-0.0356,0.0411,0.0081
1730000015900,49595,0.0111,-0.9799,0.0737,-0.0021,0.0118,-0.0071
1730000015910,49590,0.0389,-0.9888,0.0755,0.0236,-0.0232,0.0013
1730000015920,49586,0.0412,-0.98,0.0822,-0.0115,-0.0187,-0.0022
1730000015930,49582,0.0428,-0.9633,0.0854,0.0138,0.0192,-0.0033
1730000015940,49578,0.0198,-0.9827,0.0845,-0.0193,-0.0261,-0.0074
1730000015950,49574,0.0239,-1.0032,0.0877,-0.0229,-0.0043,-0.0138
1730000015960,49571,0.0261,-1.0116,0.0599,0.0013,0.0065,0.0077
1730000015970,49568,0.0217,-0.9723,0.0819,0.0041,0.0275,-0.0021
1730000015980,49566,0.0103,-0.9543,0.0897,0.0115,-0.0109,0.0048
1730000015990,49567,0.0369,-0.9897,0.0867,-0.0268,-0.0185,0.0098
1730000016000,49575,0.0266,-0.987,0.0692,-0.0148,0.041,0.0006
1730000016010,49598,0.0287,-0.9681,0.0827,0.0089,-0.0065,0.0113
1730000016020,49644,0.0209,-0.9858,0.0854,-0.0007,0.008,-0.0084
1730000016030,49730,0.0023,-1.0232,0.0653,-0.0201,-0.0116,0.0001
1730000016040,49869,0.0248,-0.9682,0.0683,0.0379,-0.0023,-0.006
1730000016050,50067,0.019,-0.9734,0.0835,-0.011,0.0307,-0.0156
1730000016060,50315,0.0248,-0.9632,0.0795,-0.019,0.0016,0.0093
1730000016070,50584,0.0208,-0.9888,0.0596,0.0061,-0.039,0.011
1730000016080,50826,0.0122,-0.955,0.0899,-0.0006,-0.0041,0.0195
1730000016090,50986,0.0174,-0.9838,0.0753,-0.015,0.0002,-0.0015
1730000016100,51026,-0.0069,-0.9986,0.0928,0.0172,0.0467,-0.0167
1730000016110,50934,0.0001,-0.9558,0.0695,0.0176,-0.0129,0.0118
1730000016120,50734,0.0168,-0.9801,0.095,0.0152,-0.0129,-0.0277
1730000016130,50475,0.0359,-0.9791,0.0827,-0.0182,-0.0023,-0.0081
1730000016140,50211,0.0131,-1.0272,0.0873,0.0043,-0.0159,0.0115
1730000016150,49985,0.0178,-0.9853,0.0697,0.0306,0.0422,-0.0105
1730000016160,49820,0.0096,-0.9817,0.0878,0.0011,-0.0034,0.0079
1730000016170,49719,0.0221,-0.9816,0.0782,-0.0073,0.0199,-0.0002
1730000016180,49672,0.0197,-0.976,0.0893,-0.0082,0.0387,-0.0087
1730000016190,49665,0.0052,-0.9708,0.0835,-0.0086,0.0658,0.0044
1730000016200,49684,0.0325,-0.9631,0.0834,-0.0185,0.0031,0.0054
1730000016210,49718,0.0068,-1.0213,0.0922,0.0127,0.009,-0.0028
1730000016220,49759,0.0282,-1.0027,0.0741,-0.0116,0.0236,-0.0027
1730000016230,49800,0.0139,-0.958,0.0896,-0.0027,0.008,-0.0129
1730000016240,49835,0.0143,-0.9931,0.0772,0.0152,-0.0151,0.007
1730000016250,49861,0.0283,-0.9924,0.1016,-0.0052,-0.0219,-0.0094
1730000016260,49874,0.0246,-0.978,0.0813,-0.0469,-0.0182,-0.0148
1730000016270,49872,0.028,-0.9865,0.0744,0.0011,0.0239,0.0087
1730000016280,49855,0.029,-0.9889,0.0767,0.0007,-0.02,-0.0009
1730000016290,49826,0.0206,-0.959,0.0609,-0.0065,0.0017,0.0177
1730000016300,49787,0.0263,-0.9838,0.0727,0.0136,0.0095,-0.0089
1730000016310,49743,0.021,-0.9425,0.0861,-0.015,-0.0292,0.0064
1730000016320,49697,0.0222,-0.9525,0.0929,-0.0142,0.0004,-0.0088
1730000016330,49653,0.0025,-0.978,0.0882,0.0023,-0.0002,-0.0152
1730000016340,49614,0.0214,-0.9722,0.0801,-0.0081,-0.0062,0.0055
1730000016350,49581,0.0239,-1.0095,0.0831,-0.0064,0.0023,0.0073
1730000016360,49555,0.0271,-0.9351,0.078,0.0137,-0.0211,0.0066
1730000016370,49536,0.0064,-0.9542,0.0693,-0.0259,0.0117,0.0074
1730000016380,49522,0.0369,-0.9783,0.0749,-0.0013,-0.0251,-0.0082
1730000016390,49513,0.0212,-0.9964,0.058,-0.0297,0.0013,-0.012
1730000016400,49507,0.0298,-0.955,0.0865,-0.0042,0.0022,-0.0124
1730000016410,49503,0.0234,-0.954,0.0806,-0.0259,-0.0334,-0.0022
1730000016420,49502,0.018,-0.928,0.0659,-0.0314,0.0064,-0.0048
1730000016430,49501,0.0479,-0.9953,0.0953,-0.0185,-0.0004,-0.0027
1730000016440,49501,0.0104,-0.9435,0.0856,-0.019,0.0256,-0.0084
1730000016450,49502,0.0334,-0.9666,0.0721,0.0013,-0.0169,-0.0175
1730000016460,49503,0.0338,-0.982,0.0723,-0.0289,0.0052,-0.0203
1730000016470,49504,0.0095,-0.966,0.0679,0.0122,0.0129,0.0089
1730000016480,49505,0.0174,-0.9848,0.0732,0.0375,0.0109,0.0024
1730000016490,49507,0.0238,-0.9329,0.0944,-0.0334,0.005,0.0181
1730000016500,49508,0.0179,-0.971,0.0727,0.01,-0.0073,0.0131
1730000016510,49510,0.0095,-0.9756,0.0818,-0.0075,-0.0064,0.0022
1730000016520,49512,0.0168,-0.9668,0.0664,0.0245,-0.0382,-0.0067
1730000016530,49513,0.034,-1.012,0.1009,-0.0119,-0.006,-0.0002
1730000016540,49515,0.0307,-0.9718,0.0865,0.0192,0.0312,0.0024
1730000016550,49517,0.0139,-0.9931,0.0731,-0.0066,-0.0118,0.0078
1730000016560,49519,0.0003,-0.9815,0.0879,-0.0074,-0.0022,0.0064
1730000016570,49522,0.0349,-0.944,0.0724,-0.0378,0.0009,-0.0102
1730000016580,49524,0.0152,-0.9848,0.0911,-0.0102,-0.0039,0.0096
1730000016590,49526,0.0243,-0.9735,0.0827,0.0308,0.0165,-0.0015
1730000016600,49529,0.0248,-0.9646,0.0935,-0.0069,0.0124,0.021
1730000016610,49531,0.0118,-0.968,0.0956,0.0369,0.0168,0.0039
1730000016620,49534,0.0192,-1.0025,0.0711,0.0214,-0.0098,-0.0028
1730000016630,49537,0.022,-0.9706,0.0754,-0.0439,0.0081,-0.0002
1730000016640,49540,0.0225,-0.9755,0.0866,-0.0172,0.0293,0.0081
1730000016650,49543,0.0297,-0.9718,0.0574,-0.0213,-0.0351,0.0004
1730000016660,49546,0.0239,-0.9261,0.073,-0.0099,-0.0326,0.0275
1730000016670,49549,0.0262,-0.9413,0.0758,-0.0062,-0.0053,-0.023
1730000016680,49552,0.0123,-0.9676,0.0829,0.0232,0.0053,-0.0062
1730000016690,49556,0.0114,-0.9796,0.0984,0.0041,-0.0007,0.0162
1730000016700,49559,0.0259,-0.9573,0.0685,0.0193,-0.0233,-0.001
1730000016710,49563,0.0074,-0.9343,0.0855,-0.0071,-0.02,-0.0049
1730000016720,49566,0.0224,-1.0059,0.0881,0.019,-0.0021,0.0037
1730000016730,49570,0.03,-0.9527,0.0826,-0.0122,-0.0076,-0.0003
1730000016740,49574,-0.0009,-0.9593,0.0675,0.0035,-0.0002,-0.0034
1730000016750,49578,0.002,-0.9569,0.0824,0.0025,0.0054,-0.0086
1730000016760,49582,0.0318,-0.9655,0.0883,-0.0179,-0.0141,0.0029
1730000016770,49586,0.0228,-0.966,0.0925,-0.0326,0.001,-0.0138
1730000016780,49590,0.0374,-0.96,0.0955,0.0325,-0.0125,-0.0039
1730000016790,49594,0.034,-0.9814,0.0787,-0.0076,-0.0224,0.0203
1730000016800,49599,0.0271,-0.9734,0.0666,-0.0025,0.0133,0.0178
1730000016810,49604,0.0407,-0.9616,0.0963,0.0047,0.0187,0.0022
1730000016820,49612,0.0149,-0.9349,0.0779,-0.0129,-0.0178,0.0089
1730000016830,49626,0.0277,-0.9498,0.0817,-0.028,0.0249,0.007
1730000016840,49649,0.0241,-0.9835,0.0726,0.0128,-0.015,0.0065
1730000016850,49692,0.0219,-0.9569,0.0897,0.0162,0.0055,-0.0089
1730000016860,49768,0.0176,-0.9383,0.0822,0.0354,-0.0281,0.0152
1730000016870,49888,0.01,-0.9936,0.0709,-0.0203,0.0316,-0.0097
1730000016880,50065,0.0243,-0.9695,0.0638,0.009,0.0034,-0.0122
1730000016890,50297,0.0303,-0.9825,0.0622,0.0206,-0.0085,-0.0116
1730000016900,50564,0.0143,-0.977,0.0793,-0.0243,0.0225,0.0047
1730000016910,50829,0.0176,-0.9295,0.0817,0.0081,-0.0026,0.0
1730000016920,51041,0.0325,-0.9756,0.0885,-0.0142,-0.0126,-0.0094
1730000016930,51154,0.0053,-0.955,0.0673,0.0184,0.0183,-0.0034
1730000016940,51142,0.0271,-0.9554,0.09,-0.0208,0.0083,0.0112
1730000016950,51009,0.0176,-0.9572,0.0742,0.0441,0.017,-0.0023
1730000016960,50790,0.0335,-0.9679,0.0833,0.0146,0.0308,-0.0033
1730000016970,50535,0.0399,-0.9453,0.0901,0.0167,0.0221,0.0047
1730000016980,50294,0.0215,-0.9355,0.0836,0.0169,-0.0202,0.0153
1730000016990,50100,0.0241,-0.9356,0.0859,-0.0009,0.0154,-0.0086
1730000017000,49967,0.0022,-0.9842,0.0927,-0.015,-0.011,0.0096
1730000017010,49893,0.0251,-0.9797,0.0795,-0.0088,0.0171,0.0046
1730000017020,49868,0.0107,-0.9907,0.0641,0.0111,0.0139,0.0021
1730000017030,49877,0.0112,-0.9894,0.0879,-0.053,0.0099,-0.0043
1730000017040,49909,0.0159,-0.9207,0.0864,0.0039,-0.0024,-0.0141
1730000017050,49952,0.0085,-0.9998,0.0788,-0.0264,-0.0014,-0.0039
1730000017060,50000,0.0258,-0.9626,0.0777,-0.0029,-0.0194,0.004
1730000017070,50046,0.0199,-0.9237,0.0909,0.0038,0.0234,-0.0113
1730000017080,50087,0.0143,-0.9934,0.088,0.0141,-0.02,0.0107
1730000017090,50117,0.0236,-0.9865,0.0783,-0.0046,0.0378,-0.002
1730000017100,50135,0.0272,-0.9637,0.0971,-0.0143,0.0168,-0.0001
1730000017110,50138,0.015,-0.9634,0.0962,0.0138,-0.013,-0.0071
1730000017120,50127,0.0295,-0.9402,0.0726,-0.0172,-0.0134,-0.0113
1730000017130,50105,0.0263,-0.9605,0.0754,-0.0337,-0.0081,-0.0111
1730000017140,50073,0.0273,-0.9553,0.0859,-0.004,0.0169,0.0091
1730000017150,50036,0.0251,-0.9394,0.0786,-0.0231,-0.0255,0.0165
1730000017160,49998,0.008,-0.9554,0.0805,-0.0021,0.0253,0.0149
1730000017170,49962,0.013,-0.9618,0.0819,-0.0278,0.0128,0.0053
1730000017180,49931,0.0197,-0.9356,0.0634,0.0154,-0.0106,-0.0104
1730000017190,49905,0.0273,-0.968,0.0751,0.0342,-0.0257,-0.0116
1730000017200,49886,0.0125,-0.9597,0.0799,-0.0013,-0.0187,-0.0097
1730000017210,49873,0.0232,-1.0019,0.0859,-0.0056,0.0221,0.0042
1730000017220,49866,0.0248,-0.9614,0.0578,0.0077,-0.0032,0.0106
1730000017230,49862,0.0118,-0.9858,0.0906,-0.0156,0.0148,-0.0133
1730000017240,49863,0.0193,-0.9576,0.0785,-0.0054,0.0175,-0.0196
1730000017250,49865,0.0116,-0.9999,0.0707,-0.0158,0.0078,-0.0026
1730000017260,49870,0.0257,-0.9434,0.0944,-0.0058,-0.0599,0.003
1730000017270,49875,0.0317,-0.991,0.0737,0.0133,0.0096,0.0059
1730000017280,49881,0.0254,-1.005,0.0878,-0.0107,0.0434,0.0167
1730000017290,49888,0.0188,-0.9402,0.0732,0.0086,0.0105,0.0089
1730000017300,49895,0.0058,-0.9241,0.0837,0.0241,-0.0062,0.0004
1730000017310,49902,0.0189,-0.9645,0.078,0.0138,0.0456,-0.0146
1730000017320,49909,0.013,-1.0042,0.0775,-0.0027,0.0093,-0.0052
1730000017330,49916,0.0014,-0.987,0.0836,-0.0033,0.0399,0.0162
1730000017340,49923,0.0193,-0.9532,0.0862,0.0312,0.0169,-0.0013
1730000017350,49930,0.0112,-0.9833,0.0796,-0.0164,-0.0175,0.0026
1730000017360,49937,0.0046,-0.9854,0.1009,-0.0424,0.0189,0.0024
1730000017370,49944,0.0116,-0.9515,0.0677,0.0039,-0.0037,-0.0008
1730000017380,49951,0.0191,-0.9549,0.0874,0.028,-0.0105,-0.0005
1730000017390,49958,0.0257,-0.955,0.065,-0.0027,0.013,0.0175
1730000017400,49965,0.0027,-0.9471,0.067,0.0075,0.0001,-0.0064
1730000017410,49973,0.0176,-0.9589,0.0894,-0.0016,0.0195,-0.0123
1730000017420,49980,0.0128,-0.9973,0.0814,0.0072,0.0153,0.0009
1730000017430,49987,0.0283,-1.0038,0.0817,-0.0147,0.0118,-0.0045
1730000017440,49994,0.0205,-0.937,0.0934,0.0005,-0.0165,0.0087
1730000017450,50001,0.0183,-0.9738,0.0758,-0.0171,0.0039,0.0117
1730000017460,50008,0.0301,-0.9784,0.0635,-0.036,0.0037,-0.0103
1730000017470,50016,0.0207,-0.9673,0.0883,-0.042,-0.002,0.0007
1730000017480,50023,0.0165,-0.9669,0.0723,-0.0082,0.0182,-0.0094
1730000017490,50030,0.0236,-0.9558,0.0759,-0.0025,-0.0181,0.0036
1730000017500,50037,0.0122,-0.9914,0.087,0.0068,0.0118,-0.0172
1730000017510,50044,0.0028,-0.9831,0.0742,-0.0032,-0.0025,-0.0031
1730000017520,50051,0.0023,-0.9434,0.0884,0.0291,-0.0179,-0.0138
1730000017530,50058,0.0152,-0.9887,0.0789,0.0037,0.0111,-0.0193
1730000017540,50065,0.0156,-0.9654,0.0978,0.0152,-0.0096,0.0035
1730000017550,50073,0.0359,-0.9652,0.079,0.0471,0.006,0.0081
1730000017560,50080,0.026,-0.9821,0.0806,-0.0046,0.0137,0.0011
1730000017570,50087,0.0125,-0.9721,0.0851,0.0062,-0.0285,0.0112
1730000017580,50094,0.0321,-0.9719,0.0842,0.0286,0.0143,0.0008
1730000017590,50101,0.0097,-0.9335,0.0817,-0.0091,-0.007,-0.0016
1730000017600,50108,0.0023,-0.9618,0.0928,-0.0067,0.0164,-0.0022
1730000017610,50115,0.0198,-0.9734,0.0867,-0.0026,0.0291,-0.0082
1730000017620,50122,0.0215,-0.928,0.0944,-0.0213,-0.0086,0.0103
1730000017630,50129,0.0132,-0.9716,0.0819,-0.02,0.0004,-0.0088
1730000017640,50136,0.029,-0.9609,0.0845,0.0199,-0.0031,0.0011
1730000017650,50144,0.0295,-0.9986,0.0745,-0.018,0.0317,0.0044
1730000017660,50156,0.0193,-0.9529,0.0975,-0.0151,0.001,0.0087
1730000017670,50173,0.0307,-1.0042,0.0827,-0.0133,-0.0059,0.0008
1730000017680,50205,0.0124,-0.9796,0.0884,0.0103,0.0143,-0.0094
1730000017690,50262,0.0159,-0.9424,0.0805,0.0011,-0.0356,-0.0083
1730000017700,50360,0.0176,-0.9834,0.0728,-0.0061,-0.0232,0.0198
1730000017710,50516,-0.0044,-0.9652,0.0823,-0.0061,-0.0184,0.0003
1730000017720,50736,0.0141,-0.9738,0.074,-0.0494,0.0204,0.0102
1730000017730,51009,0.0226,-0.9566,0.0958,-0.0331,0.0027,-0.0097
1730000017740,51298,0.0171,-0.9802,0.0902,-0.0124,0.0434,-0.0054
1730000017750,51547,0.0091,-0.9887,0.0736,-0.0065,-0.0089,-0.0067
1730000017760,51696,0.019,-0.9984,0.0696,-0.0151,-0.0018,-0.0228
1730000017770,51707,0.0254,-0.9461,0.0729,0.0065,-0.0086,-0.0186
1730000017780,51580,0.0171,-0.9542,0.0806,0.0044,0.006,0.0086
1730000017790,51352,0.0188,-0.9634,0.0942,-0.0174,-0.0042,0.0104
1730000017800,51082,0.0242,-0.9651,0.0877,-0.0133,-0.0052,-0.0158
1730000017810,50829,0.0034,-0.9813,0.0983,0.0179,-0.0195,-0.0048
1730000017820,50631,0.0331,-0.9884,0.0844,-0.0284,-0.0075,0.0051
1730000017830,50503,0.0227,-0.978,0.072,-0.0008,0.0093,0.0039
1730000017840,50440,0.0073,-0.9745,0.0711,0.0037,-0.0265,-0.0031
1730000017850,50426,0.0379,-0.956,0.0693,-0.012,0.002,0.0063
1730000017860,50446,-0.0094,-0.9464,0.0898,0.0073,0.0096,0.0062
1730000017870,50485,0.0137,-0.9718,0.078,-0.0215,-0.0016,-0.0045
1730000017880,50534,0.0123,-0.9872,0.08,-0.0181,-0.0072,-0.0085
1730000017890,50584,0.0275,-0.9866,0.0912,-0.0407,-0.0079,0.0137
1730000017900,50629,-0.0009,-0.942,0.0736,-0.0092,-0.0372,-0.0108
1730000017910,50664,0.0157,-0.9705,0.0652,-0.02,-0.0076,-0.0013
1730000017920,50685,0.0218,-0.993,0.0884,-0.0156,-0.0283,0.0029
1730000017930,50690,0.0325,-0.931,0.0797,-0.0093,0.0085,-0.0
1730000017940,50679,0.0185,-1.0014,0.0843,0.0172,0.0006,0.008
1730000017950,50654,0.0253,-0.9799,0.1026,-0.0041,-0.0032,-0.0018
1730000017960,50619,0.0313,-0.9494,0.0842,-0.0005,0.028,0.0183
1730000017970,50578,0.0166,-0.9494,0.0626,0.0283,-0.0005,-0.0113
1730000017980,50536,0.0207,-0.956,0.0682,0.002,-0.0052,0.0209
1730000017990,50496,0.0238,-0.9611,0.0934,0.0073,-0.0077,-0.0169
1730000018000,50462,0.0294,-0.9533,0.0849,0.0084,0.0035,-0.0275
1730000018010,50435,0.0122,-0.9708,0.093,0.0379,0.004,0.005
1730000018020,50415,0.0129,-0.9915,0.059,-0.0411,-0.0249,-0.0236
1730000018030,50402,0.0176,-1.012,0.0909,-0.0035,-0.0064,0.0054
1730000018040,50394,0.0095,-0.982,0.0758,-0.0151,0.0056,0.0038
1730000018050,50390,0.0313,-0.9658,0.0947,0.0008,-0.0014,-0.0014
1730000018060,50389,0.0292,-0.9955,0.0909,-0.0086,-0.0244,-0.0048
1730000018070,50391,0.0211,-0.9544,0.0887,0.0105,0.0246,0.0167
1730000018080,50393,0.0164,-0.9785,0.0732,-0.0058,0.0058,-0.0012
1730000018090,50397,0.0126,-0.9672,0.0678,0.0106,-0.0076,0.0002
1730000018100,50401,0.0147,-0.9528,0.0851,0.0048,0.0099,-0.0029
1730000018110,50405,0.0266,-0.9669,0.0992,0.0074,0.015,-0.0025
1730000018120,50409,0.0126,-1.0091,0.0808,-0.0167,0.0233,-0.0134
1730000018130,50412,0.0244,-0.9804,0.0776,0.01,-0.017,-0.0067
1730000018140,50416,0.0184,-0.9887,0.0712,0.0133,-0.0331,0.0041
1730000018150,50420,0.035,-1.0211,0.0796,0.0024,-0.0084,0.0011
1730000018160,50424,0.0124,-0.9887,0.0805,0.022,0.0194,0.0021
1730000018170,50428,0.0251,-1.0005,0.075,-0.0192,0.0185,0.0152
1730000018180,50431,0.0233,-1.0119,0.0653,0.0209,0.001,-0.0073
1730000018190,50435,0.0324,-0.9487,0.093,-0.0078,0.021,0.0008
1730000018200,50438,0.0219,-0.9766,0.0697,-0.019,-0.0098,-0.0153
1730000018210,50441,0.0312,-0.9852,0.0897,-0.0158,0.0257,-0.0082
1730000018220,50445,0.0453,-0.9607,0.0682,0.0193,-0.0139,-0.0152
1730000018230,50448,0.0282,-0.9659,0.0771,0.0236,0.0043,0.0184
1730000018240,50451,0.0102,-0.9388,0.0748,0.0171,0.0508,0.0001
1730000018250,50454,0.0147,-1.0111,0.102,0.0169,-0.0032,0.0018
1730000018260,50457,0.0021,-0.9976,0.0815,0.0113,0.0001,0.0063
1730000018270,50459,0.0143,-0.9733,0.0836,0.0025,0.0083,0.0005
1730000018280,50462,0.0352,-0.9754,0.072,-0.0182,0.0026,-0.015
1730000018290,50464,0.0228,-1.0006,0.059,-0.0185,-0.0329,-0.0046
1730000018300,50467,0.0037,-0.9782,0.083,0.0009,-0.0107,0.0031
1730000018310,50469,-0.0011,-0.9733,0.0653,-0.0178,0.0091,0.0104
1730000018320,50472,0.025,-0.9888,0.0667,0.0048,0.027,0.0011
1730000018330,50474,0.0105,-1.0074,0.0957,-0.0256,-0.0214,0.0124
1730000018340,50476,0.0126,-0.9793,0.0849,0.0052,0.0208,-0.0078
1730000018350,50478,0.0323,-1.0025,0.0837,-0.0281,0.0242,0.0246
1730000018360,50480,0.0255,-0.9986,0.0828,-0.0156,-0.0345,-0.0041
1730000018370,50481,0.0209,-0.9919,0.0757,0.0234,-0.0274,0.0087
1730000018380,50483,0.0207,-1.006,0.0755,-0.0222,0.0065,0.0098
1730000018390,50485,0.0175,-0.9864,0.0716,-0.0015,0.0283,-0.0143
1730000018400,50486,0.0091,-1.0072,0.083,-0.0178,0.003,-0.0093
1730000018410,50488,0.0179,-0.9766,0.0526,-0.0193,-0.0039,-0.0026
1730000018420,50489,0.0149,-1.0135,0.0999,-0.0112,-0.0071,0.0062
1730000018430,50490,0.0051,-0.9954,0.0809,-0.002,0.01,-0.0095
1730000018440,50492,0.0206,-0.9662,0.0702,-0.0003,0.0181,-0.0053
1730000018450,50494,0.0377,-1.0018,0.0783,-0.0023,0.0029,-0.0064
1730000018460,50498,0.0327,-1.0054,0.0747,0.0319,0.0075,0.0
1730000018470,50508,0.0242,-0.9634,0.089,-0.0143,-0.0157,-0.0041
1730000018480,50528,0.0464,-0.9959,0.0731,0.0174,-0.0338,-0.0013
