t,ppg,ax,ay,az,gx,gy,gz
1791083410544,725,-0.9319,-0.3765,0.179,4.82,-5.48,4.72
1791083410554,723,-0.9539,-0.2935,0.1914,7.79,-5.21,7.51
1791083410564,724,-0.9392,-0.25,0.2605,4.49,-8.26,4.92
1791083410574,720,-0.9153,-0.2402,0.3057,-0.63,-5.04,0.23
1791083410584,723,-0.9048,-0.2393,0.2473,-5.08,2.61,-4.85
1791083410594,718,-0.8953,-0.2637,0.1597,-8.69,5.59,-9.33
1791083410604,721,-0.8552,-0.2637,0.1001,-9.33,3.88,-11.21
1791083410614,727,-0.8579,-0.282,0.1047,-8.34,1.73,-11.39
1791083410624,727,-0.8301,-0.2766,0.0889,-8.11,1.56,-9.91
1791083410634,725,-0.8552,-0.3145,0.0605,-3.47,-4.82,-7.74
1791083410644,722,-0.9119,-0.3379,0.2107,7.19,-20.43,-4.09
1791083410654,722,-0.929,-0.3123,0.4067,17.24,-27.22,-0.23
1791083410664,716,-0.9395,-0.2666,0.4409,22.09,-19.63,1.53
1791083410674,723,-0.9502,-0.207,0.4233,25.97,-12.12,-0.81
1791083410684,719,-0.9336,-0.21,0.4255,23.02,-9.3,-6.98
1791083410694,721,-0.8989,-0.2295,0.3796,14.41,-3.37,-13.98
1791083410704,720,-0.8774,-0.2317,0.3086,6.24,3.44,-19.89
1791083410714,725,-0.8601,-0.292,0.2346,-1.88,4.47,-24.7
1791083410724,723,-0.843,-0.4163,0.2212,-7.82,2.05,-25.62
1791083410734,719,-0.9067,-0.5015,0.2786,-2.21,-2.81,-18.79
1791083410744,721,-0.9211,-0.4792,0.3452,8.5,-6.34,-8.87
1791083410754,718,-0.8987,-0.3738,0.3804,16.21,-6.89,-1.71
1791083410764,726,-0.8669,-0.3298,0.3848,15.6,-4.38,-1.88
1791083410774,720,-0.8613,-0.3298,0.3735,8.84,-1.02,-5.53
1791083410784,720,-0.8586,-0.3403,0.3169,1.28,3.56,-8.98
1791083410794,726,-0.8586,-0.3254,0.2302,-2.61,5.27,-11.27
1791083410804,720,-0.8411,-0.2869,0.1877,-3.25,1.59,-13.28
1791083410814,722,-0.8093,-0.3005,0.2009,-3.33,-3.86,-15.13
1791083410824,720,-0.7769,-0.3337,0.2397,-5.21,-3.02,-15.94
1791083410834,721,-0.76,-0.3601,0.2249,-6.23,0.58,-14.02
1791083410844,723,-0.7351,-0.3689,0.1826,-3.91,0.32,-9.95
1791083410854,720,-0.7178,-0.3704,0.1821,2.75,-1.97,-5.5
1791083410864,720,-0.7463,-0.3704,0.2319,12.43,-8.41,-0.64
1791083410874,721,-0.7837,-0.3772,0.3286,22.08,-15.53,3.39
1791083410884,725,-0.7971,-0.3459,0.415,27.24,-15.36,6.89
1791083410894,716,-0.8079,-0.2832,0.4038,27.16,-6.35,7.71
1791083410904,717,-0.8628,-0.2703,0.3779,25.42,-0.34,4.21
1791083410914,720,-0.8865,-0.3606,0.4424,21.91,-4.11,-0.81
1791083410924,724,-0.8789,-0.4451,0.5376,21.62,-5.65,-3.01
1791083410934,727,-0.8572,-0.4883,0.5447,23.74,0.92,-1.21
1791083410944,720,-0.8564,-0.5085,0.4185,26.37,12.72,4.26
1791083410954,718,-0.8386,-0.4575,0.2554,27.8,19.88,9.92
1791083410964,720,-0.8179,-0.3696,0.1963,27.37,16.18,11.48
1791083410974,726,-0.7891,-0.356,0.188,22.27,9.5,9.25
1791083410984,727,-0.8103,-0.3469,0.2061,19.89,6.27,7.53
1791083410994,726,-0.8296,-0.3062,0.2068,16.52,7.44,7.71
1791083411004,724,-0.8677,-0.262,0.228,18.64,6.47,7.79
1791083411014,728,-0.8748,-0.248,0.2988,23.5,4.69,6.29
1791083411024,724,-0.8574,-0.1929,0.2495,24.29,9.54,3.07
1791083411034,720,-0.9053,-0.2021,0.1973,20.02,14.35,-4.03
1791083411044,722,-0.8928,-0.2646,0.0737,7.5,16.46,-10.49
1791083411054,725,-0.8987,-0.2563,0.0046,-0.87,9.89,-14.66
1791083411064,724,-0.9248,-0.2942,0.0542,-9.13,-4.69,-16.93
1791083411074,721,-0.9714,-0.3613,0.123,-14.49,-9.18,-15.91
1791083411084,725,-1.0356,-0.3877,0.1326,-8.27,-13.54,-8.61
1791083411094,721,-1.0742,-0.4192,0.2183,8.35,-28.02,0.75
1791083411104,723,-1.0583,-0.4075,0.3047,27.04,-40.41,9.82
1791083411114,724,-1.0325,-0.3748,0.3931,42.93,-43.97,16.05
1791083411124,727,-1.0315,-0.3792,0.4202,48.08,-40.06,18.09
1791083411134,723,-1.0129,-0.3633,0.4241,46.31,-32.84,16.08
1791083411144,721,-0.9604,-0.3826,0.438,35.42,-24.06,10.64
1791083411154,727,-0.9265,-0.4753,0.4541,17.47,-9.3,5.92
1791083411164,728,-0.9019,-0.4998,0.2832,1.51,12.93,7.11
1791083411174,726,-0.8665,-0.4226,0.0425,-13.92,23.45,12.0
1791083411184,726,-0.8955,-0.3542,0.0203,-20.37,11.56,15.68
1791083411194,727,-0.9507,-0.2756,0.2263,-10.56,-13.44,19.86
1791083411204,726,-0.8921,-0.2339,0.4231,5.59,-26.18,21.39
1791083411214,725,-0.927,-0.2063,0.4426,20.69,-22.06,20.78
1791083411224,725,-0.9375,-0.1941,0.4392,41.22,-18.21,14.96
1791083411234,724,-0.8992,-0.2227,0.4949,45.6,-18.11,7.15
1791083411244,721,-0.8589,-0.2532,0.4802,39.95,-4.63,-0.26
1791083411254,719,-0.8364,-0.2676,0.3022,33.15,13.97,-4.82
1791083411264,720,-0.8833,-0.292,0.093,23.02,23.68,-4.6
1791083411274,720,-0.9202,-0.2659,-0.0562,15.18,20.34,-0.41
1791083411284,720,-0.9744,-0.207,-0.0134,14.66,3.08,4.7
1791083411294,728,-0.98,-0.1318,0.1584,16.85,-14.32,5.01
1791083411304,722,-0.9771,-0.1514,0.3345,15.08,-20.38,-0.21
1791083411314,725,-1.0537,-0.2373,0.4292,15.16,-15.3,-5.33
1791083411324,723,-1.1543,-0.3435,0.4465,15.94,-6.98,-7.42
1791083411334,724,-1.5481,-0.2871,-0.0059,-5.85,34.08,5.11
1791083411344,726,-1.7275,-0.4043,-0.0999,0.27,32.44,-9.73
1791083411354,724,-1.0945,-0.2803,0.7263,15.63,-63.88,-6.11
1791083411364,723,-0.6665,-0.2747,1.0547,-6.9,-46.02,1.27
1791083411374,724,-0.7881,-0.2896,0.311,-6.49,66.99,5.08
1791083411384,725,-1.0977,-0.2573,-0.3289,-0.2,81.05,2.87
1791083411394,719,-1.0134,-0.4167,-0.0562,-19.56,-3.56,-3.04
1791083411404,716,-0.8972,-0.4861,0.4465,-21.47,-42.09,0.09
1791083411414,719,-0.9404,-0.4485,0.5999,-10.23,-21.27,12.06
1791083411424,722,-0.9487,-0.3982,0.4558,-0.29,3.05,21.04
1791083411434,721,-0.9316,-0.3086,0.3401,9.89,9.6,26.14
1791083411444,726,-0.8594,-0.2378,0.3374,6.89,3.08,26.81
1791083411454,725,-0.7817,-0.1775,0.2957,-1.76,5.59,24.98
1791083411464,717,-0.7532,-0.0979,0.2358,-8.41,9.07,21.42
1791083411474,720,-0.7434,-0.0784,0.2529,-13.88,3.89,16.14
1791083411484,719,-0.7161,-0.1191,0.3489,-14.9,-1.02,10.35
1791083411494,716,-0.751,-0.1702,0.3979,-12.63,0.34,8.18
1791083411504,721,-0.8025,-0.2393,0.4031,-4.78,4.23,8.47
1791083411514,719,-0.8403,-0.2327,0.4255,8.38,5.83,12.47
1791083411524,720,-0.8606,-0.2012,0.4446,18.46,7.28,15.6
1791083411534,725,-0.8398,-0.1372,0.4189,19.62,11.48,15.22
1791083411544,718,-0.8123,-0.0684,0.3438,14.06,19.24,9.89
1791083411554,724,-0.8242,-0.0234,0.2502,3.19,25.6,0.53
1791083411564,727,-0.8374,-0.0249,0.1685,-10.98,26.84,-10.6
1791083411574,721,-0.8174,-0.0242,0.1143,-21.54,23.8,-21.85
1791083411584,720,-0.8108,-0.0596,0.1113,-27.13,18.63,-32.85
1791083411594,725,-0.8652,-0.2476,0.2236,-30.98,11.56,-43.34
1791083411604,721,-0.9216,-0.4888,0.3196,-28.75,8.0,-44.76
1791083411614,721,-0.9453,-0.6152,0.3313,-16.31,9.57,-34.85
1791083411624,727,-0.95,-0.6501,0.2537,-1.3,6.63,-19.8
1791083411634,723,-0.8694,-0.4978,0.1511,6.47,1.76,-5.89
1791083411644,718,-0.8237,-0.3147,0.0889,1.37,-3.44,-0.24
1791083411654,721,-0.813,-0.2334,0.0439,-11.57,-8.37,-3.21
1791083411664,718,-0.821,-0.2097,0.0159,-22.44,-13.05,-9.79
1791083411674,722,-0.8484,-0.2263,0.0132,-29.25,-20.55,-14.38
1791083411684,723,-0.8845,-0.2883,0.0818,-28.02,-30.89,-15.15
1791083411694,725,-0.9519,-0.3623,0.2427,-17.76,-42.79,-10.93
1791083411704,718,-0.9607,-0.407,0.3772,-4.75,-45.42,-2.75
1791083411714,720,-0.9592,-0.3501,0.4055,5.4,-39.24,6.23
1791083411724,723,-0.978,-0.3403,0.4495,10.61,-32.14,12.46
1791083411734,724,-0.9685,-0.312,0.4524,11.97,-26.69,17.39
1791083411744,722,-0.9204,-0.231,0.4238,10.17,-20.7,19.19
1791083411754,723,-0.8501,-0.1492,0.354,4.37,-14.27,17.92
1791083411764,723,-0.8101,-0.1013,0.2957,-3.05,-10.09,13.27
1791083411774,721,-0.7834,-0.1096,0.2832,-7.24,-8.67,7.86
1791083411784,725,-0.8098,-0.1418,0.2969,-4.29,-11.18,4.11
1791083411794,721,-0.833,-0.1807,0.3889,2.78,-16.84,2.38
1791083411804,727,-0.8369,-0.2449,0.4675,10.11,-17.56,2.75
1791083411814,727,-0.8464,-0.2446,0.4534,18.99,-10.93,4.35
1791083411824,726,-0.8499,-0.2234,0.4075,24.53,-8.15,3.47
1791083411834,722,-0.8274,-0.2234,0.4131,21.74,-7.76,-0.18
1791083411844,724,-0.8213,-0.217,0.3525,14.75,-0.09,-3.88
1791083411854,727,-0.8333,-0.1643,0.2571,7.63,6.76,-9.37
1791083411864,719,-0.8472,-0.1516,0.2444,-1.3,4.26,-17.21
1791083411874,720,-0.8584,-0.2007,0.3196,-7.8,-0.93,-25.97
1791083411884,721,-0.8835,-0.313,0.387,-9.18,-3.33,-31.94
1791083411894,725,-0.927,-0.4478,0.4441,-4.6,-2.75,-30.81
1791083411904,721,-0.9475,-0.5156,0.4441,4.61,-1.76,-24.37
1791083411914,721,-0.8979,-0.4868,0.3457,9.48,2.66,-15.1
1791083411924,721,-0.876,-0.366,0.1875,8.49,7.18,-9.56
1791083411934,718,-0.8831,-0.2886,0.136,-0.53,-1.89,-10.78
1791083411944,718,-0.8767,-0.3071,0.1433,-9.59,-10.38,-15.34
1791083411954,719,-0.9377,-0.3831,0.1611,-14.47,-15.68,-18.76
1791083411964,725,-0.9824,-0.4719,0.2405,-13.59,-24.99,-17.36
1791083411974,724,-0.9849,-0.5154,0.365,-7.57,-33.91,-11.22
1791083411984,719,-0.9763,-0.541,0.4885,0.27,-32.67,-3.31
1791083411994,723,-0.9912,-0.5217,0.489,9.15,-25.53,5.16
1791083412004,728,-0.9609,-0.4604,0.4692,12.85,-21.42,10.06
1791083412014,723,-0.9221,-0.4077,0.4854,8.85,-19.13,10.99
1791083412024,725,-0.876,-0.3911,0.4912,1.27,-11.01,9.19
1791083412034,723,-0.8665,-0.3679,0.427,-4.73,-0.15,7.62
1791083412044,722,-0.855,-0.2937,0.3564,-7.51,2.38,6.9
1791083412054,726,-0.8062,-0.1663,0.3564,-8.38,0.61,4.89
1791083412064,726,-0.7749,-0.0754,0.3911,-12.7,3.16,-1.95
1791083412074,726,-0.8015,-0.0857,0.4392,-14.55,5.47,-9.88
1791083412084,726,-0.8088,-0.1157,0.4856,-9.94,5.83,-16.0
1791083412094,721,-0.833,-0.1309,0.5559,-0.56,5.11,-19.07
1791083412104,726,-0.8359,-0.1387,0.5674,8.96,7.25,-22.05
1791083412114,724,-0.8496,-0.1589,0.5955,15.85,8.05,-26.6
1791083412124,724,-0.8203,-0.2375,0.6067,11.21,12.63,-32.85
1791083412134,727,-0.8242,-0.3164,0.5002,5.79,24.38,-37.48
1791083412144,720,-0.8523,-0.3572,0.4041,2.08,28.02,-39.37
1791083412154,722,-0.8066,-0.366,0.3196,-0.56,23.19,-39.89
1791083412164,722,-0.7756,-0.3655,0.272,-5.66,19.82,-40.82
1791083412174,722,-0.7896,-0.446,0.2407,-10.08,18.53,-40.29
1791083412184,720,-0.7812,-0.449,0.2114,-11.65,14.49,-37.85
1791083412194,721,-0.7983,-0.4739,0.2144,-9.44,7.91,-35.66
1791083412204,724,-0.8237,-0.5154,0.2488,-5.21,0.17,-34.0
1791083412214,727,-0.8528,-0.574,0.3059,-1.24,-7.37,-31.33
1791083412224,725,-0.8594,-0.6194,0.3403,2.69,-11.18,-27.15
1791083412234,723,-0.8447,-0.6577,0.3271,8.46,-9.42,-19.69
1791083412244,730,-0.8191,-0.6155,0.271,17.08,-3.18,-10.87
1791083412254,729,-0.8174,-0.5518,0.196,20.32,2.6,-3.05
1791083412264,726,-0.8389,-0.5312,0.156,16.9,-1.86,1.33
1791083412274,721,-0.8694,-0.5154,0.2185,16.27,-15.15,6.23
1791083412284,721,-0.8223,-0.4136,0.2329,18.44,-24.18,8.63
1791083412294,724,-0.7974,-0.3962,0.2769,15.57,-26.09,5.31
1791083412304,724,-0.8235,-0.4663,0.3223,10.72,-24.38,1.07
1791083412314,725,-0.8313,-0.5415,0.3855,3.27,-18.73,-2.14
1791083412324,720,-0.824,-0.5715,0.3711,-3.73,-11.08,-0.21
1791083412334,731,-0.8274,-0.5662,0.3201,-6.27,-4.85,4.11
1791083412344,730,-0.8401,-0.5493,0.251,-7.15,-7.15,9.97
1791083412354,730,-0.8374,-0.4949,0.2283,-3.77,-14.66,16.72
1791083412364,723,-0.8394,-0.4453,0.2803,-0.95,-23.02,22.05
1791083412374,725,-0.8425,-0.3779,0.3391,3.22,-28.14,26.64
1791083412384,724,-0.8389,-0.2637,0.3879,15.34,-30.58,29.69
1791083412394,724,-0.8242,-0.1672,0.4788,26.69,-29.94,27.82
1791083412404,727,-0.8101,-0.1572,0.6035,31.42,-21.83,20.9
1791083412414,724,-0.8862,-0.1362,0.5342,35.45,-9.82,16.44
1791083412424,729,-0.9028,-0.1372,0.5432,39.39,-16.32,12.26
1791083412434,726,-0.9136,-0.1838,0.5986,45.3,-22.47,6.89
1791083412444,729,-0.8821,-0.2559,0.5713,50.31,-19.77,2.73
1791083412454,724,-0.8674,-0.3206,0.5022,53.85,-16.72,3.33
1791083412464,728,-0.8574,-0.3528,0.48,51.74,-14.37,4.69
1791083412474,722,-0.8005,-0.3586,0.4827,45.04,-10.93,9.66
1791083412484,730,-0.8672,-0.2744,0.512,37.8,-7.24,20.44
1791083412494,724,-0.8674,-0.2212,0.53,22.5,1.95,12.14
1791083412504,725,-0.8582,-0.2161,0.4707,8.93,4.95,2.37
1791083412514,730,-0.8606,-0.3186,0.4033,2.9,0.66,-6.03
1791083412524,728,-0.8999,-0.3374,0.3923,8.09,-9.71,-12.24
1791083412534,725,-0.9028,-0.2878,0.4268,6.73,-22.61,-22.14
1791083412544,720,-0.8564,-0.2888,0.4324,0.14,-36.14,-38.0
1791083412554,727,-0.8083,-0.4224,0.5339,-0.17,-37.25,-52.03
1791083412564,727,-0.8218,-0.5298,0.551,1.08,-29.07,-48.93
1791083412574,724,-0.7976,-0.5908,0.5457,4.6,-12.14,-39.8
1791083412584,727,-0.8228,-0.5325,0.4651,8.82,6.14,-30.06
1791083412594,726,-0.8052,-0.4287,0.3831,6.5,9.92,-22.79
1791083412604,725,-0.7585,-0.4131,0.3691,4.4,1.79,-19.21
1791083412614,726,-0.7444,-0.4148,0.428,5.37,-1.24,-16.98
1791083412624,725,-0.6987,-0.4221,0.4109,8.84,5.92,-14.73
1791083412634,730,-0.7534,-0.4763,0.4072,10.08,10.35,-9.37
1791083412644,726,-0.7407,-0.4612,0.4309,8.7,14.08,-1.51
1791083412654,723,-0.6826,-0.4011,0.4314,13.25,7.36,17.89
1791083412664,726,-0.7678,-0.2573,0.5447,10.81,4.53,33.51
1791083412674,723,-0.8064,-0.2476,0.4941,6.26,13.19,29.57
1791083412684,726,-0.8325,-0.2229,0.5078,12.0,15.57,20.9
1791083412694,731,-0.8943,-0.0654,0.3687,26.38,16.79,21.97
1791083412704,726,-0.7576,-0.3267,0.3806,15.66,-8.52,13.57
1791083412714,733,-0.7974,-0.4016,0.4971,24.85,-8.46,13.5
1791083412724,726,-0.7642,-0.4753,0.4543,28.4,3.42,20.06
1791083412734,727,-0.7817,-0.3057,0.4031,22.76,9.82,29.4
1791083412744,724,-0.8262,-0.2634,0.4043,13.44,7.16,29.02
1791083412754,732,-0.8162,-0.2605,0.4033,4.5,7.63,19.57
1791083412764,725,-0.8191,-0.3125,0.3779,1.77,4.29,13.54
1791083412774,723,-0.8516,-0.3596,0.3159,2.61,-5.76,13.56
1791083412784,729,-0.8467,-0.2561,0.3701,8.02,-27.74,18.35
1791083412794,726,-0.8723,-0.144,0.4055,13.19,-37.57,13.76
1791083412804,728,-0.7705,-0.1169,0.4731,2.56,-35.92,-6.66
1791083412814,726,-0.7324,-0.197,0.4187,-13.15,-26.11,-23.95
1791083412824,727,-0.7219,-0.3374,0.5046,-17.85,-17.77,-26.52
1791083412834,725,-0.7781,-0.2793,0.376,-17.05,-4.24,-29.37
1791083412844,731,-0.8606,-0.2974,0.3398,-18.93,-21.22,-28.14
1791083412854,728,-0.8313,-0.3328,0.4341,-17.3,-49.98,-26.31
1791083412864,727,-0.8132,-0.4033,0.6382,-0.69,-59.88,-18.44
1791083412874,723,-0.762,-0.3821,0.6812,14.29,-46.37,-10.44
1791083412884,725,-0.7817,-0.3381,0.5938,22.81,-22.52,-4.24
1791083412894,728,-0.8115,-0.3303,0.5447,20.09,-16.37,-4.78
1791083412904,725,-0.7932,-0.3503,0.5066,13.48,-20.67,-4.34
1791083412914,729,-0.8079,-0.3503,0.52,6.37,-21.69,-5.24
1791083412924,731,-0.7974,-0.3257,0.5,-4.95,-18.29,-7.94
1791083412934,729,-0.8062,-0.3127,0.5061,-9.69,-16.4,-10.43
1791083412944,729,-0.7844,-0.3132,0.5149,-11.48,-14.87,-12.58
1791083412954,726,-0.7864,-0.3962,0.5598,-10.31,-8.73,-11.89
1791083412964,729,-0.7844,-0.4185,0.5542,-5.39,5.16,-8.24
1791083412974,732,-0.78,-0.427,0.4937,-5.63,15.66,-3.57
1791083412984,729,-0.781,-0.4104,0.4458,-6.56,19.31,1.33
1791083412994,728,-0.7717,-0.3828,0.4104,-8.67,14.43,4.38
1791083413004,723,-0.7837,-0.3433,0.4282,-10.67,5.04,6.06
1791083413014,730,-0.8167,-0.5107,0.4756,-12.78,-2.44,6.46
1791083413024,733,-0.7632,-0.3401,0.5454,-1.21,0.2,10.61
1791083413034,731,-0.7498,-0.3379,0.5444,-10.6,5.92,8.53
1791083413044,731,-0.7849,-0.3853,0.5029,-10.84,15.82,7.98
1791083413054,730,-0.8145,-0.3525,0.4707,-6.7,14.89,8.17
1791083413064,729,-0.802,-0.3667,0.4636,-4.35,3.11,7.39
1791083413074,727,-0.7903,-0.3457,0.4756,-0.76,-5.62,8.0
1791083413084,726,-0.7922,-0.365,0.5308,-0.92,-11.31,8.29
1791083413094,729,-0.7649,-0.3525,0.5813,-1.97,-7.56,9.4
1791083413104,732,-0.7708,-0.2861,0.5247,-4.53,3.42,9.54
1791083413114,728,-0.7866,-0.2854,0.4912,-6.55,4.79,7.13
1791083413124,724,-0.7988,-0.291,0.5085,-7.25,-2.24,4.5
1791083413134,730,-0.7808,-0.3259,0.5078,-7.76,-5.02,1.74
1791083413144,728,-0.7859,-0.3464,0.4915,-5.13,-2.31,0.66
1791083413154,730,-0.7966,-0.3613,0.4661,-5.22,-1.3,1.3
1791083413164,727,-0.7988,-0.3501,0.4783,-2.52,-2.24,2.56
1791083413174,728,-0.8162,-0.3701,0.5056,-2.49,-0.52,3.65
1791083413184,725,-0.8352,-0.4155,0.4834,-2.67,0.23,5.77
1791083413194,731,-0.8354,-0.4102,0.4456,-1.15,-3.11,9.21
1791083413204,724,-0.8162,-0.4019,0.4385,-1.92,-10.79,12.5
1791083413214,728,-0.8281,-0.3772,0.4534,-2.9,-18.63,14.75
1791083413224,726,-0.7969,-0.3262,0.4875,-3.21,-22.93,15.18
1791083413234,734,-0.7949,-0.2358,0.5967,-2.58,-22.53,12.95
1791083413244,731,-0.7695,-0.2417,0.6455,-7.76,-6.84,7.51
1791083413254,729,-0.8164,-0.2878,0.5659,-0.81,2.72,4.96
1791083413264,730,-0.7722,-0.3054,0.5557,2.99,9.24,1.53
1791083413274,727,-0.7854,-0.3064,0.4287,3.47,14.81,0.78
1791083413284,729,-0.8147,-0.3696,0.3364,4.17,3.21,1.33
1791083413294,727,-0.7952,-0.4421,0.3662,2.21,-18.76,5.86
1791083413304,730,-0.8347,-0.4763,0.4609,2.53,-32.85,14.37
1791083413314,730,-0.8245,-0.4062,0.5327,5.3,-38.93,22.79
1791083413324,726,-0.8101,-0.3235,0.6926,-0.47,-35.25,24.44
1791083413334,727,-0.7578,-0.2483,0.772,-6.61,-16.03,21.59
1791083413344,726,-0.7625,-0.2021,0.7185,-4.92,16.11,15.74
1791083413354,729,-0.8088,-0.2224,0.5374,-0.44,35.85,7.02
1791083413364,726,-0.7952,-0.2209,0.4905,-0.44,30.64,2.44
1791083413374,733,-0.769,-0.2292,0.5032,-0.5,21.8,-2.63
1791083413384,728,-0.7561,-0.2725,0.4966,-7.13,20.99,-11.5
1791083413394,727,-0.812,-0.4507,0.5083,-11.56,26.27,-11.73
1791083413404,734,-0.7395,-0.4121,0.5015,-10.89,31.44,-7.1
1791083413414,730,-0.73,-0.3687,0.427,-15.4,44.15,-2.34
1791083413424,730,-0.8354,-0.3833,0.3005,-18.61,47.24,0.46
1791083413434,732,-0.8701,-0.3582,0.2427,-17.51,20.02,1.5
1791083413444,735,-0.8386,-0.3284,0.4329,-19.92,-12.05,0.72
1791083413454,740,-0.8069,-0.2974,0.582,-21.45,-16.35,-0.93
1791083413464,743,-0.8347,-0.3108,0.5789,-21.02,-0.38,-3.62
1791083413474,748,-0.845,-0.3027,0.498,-17.04,9.88,-5.1
1791083413484,755,-0.8604,-0.3115,0.4553,-10.37,7.97,-6.67
1791083413494,763,-1.0024,-0.436,0.3215,-3.44,-2.34,-6.58
1791083413504,767,-0.7864,-0.4187,0.6277,14.2,-64.78,-0.43
1791083413514,776,-0.7561,-0.3318,0.613,13.47,-47.02,0.47
1791083413524,802,-0.7705,-0.3198,0.5093,11.05,-21.07,1.6
1791083413534,836,-0.7329,-0.2837,0.5154,1.6,-9.02,1.4
1791083413544,880,-0.6714,-0.2939,0.5747,-14.49,0.73,-2.14
1791083413554,948,-0.9402,-0.2087,0.2361,-0.67,-30.98,2.27
1791083413564,1039,-0.6218,-0.3335,0.77,-8.43,-53.65,-2.99
1791083413574,1213,-0.7668,-0.2908,0.5625,-8.96,-3.6,-6.03
1791083413584,1383,-0.8181,-0.283,0.3782,0.52,-0.47,-5.85
1791083413594,1464,-0.7849,-0.3354,0.5054,-2.82,-18.24,-6.53
1791083413604,1518,-0.7317,-0.3232,0.5691,-3.6,-16.0,-6.08
1791083413614,1580,-0.7554,-0.3098,0.4805,3.47,-4.43,-4.67
1791083413624,1695,-0.7729,-0.3203,0.4329,5.69,-6.81,-2.58
1791083413634,1864,-0.7544,-0.3047,0.449,4.85,-13.47,-1.44
1791083413644,2143,-0.7439,-0.3052,0.501,0.34,-15.62,-0.84
1791083413654,2560,-0.7708,-0.3074,0.541,-4.52,-14.14,-0.35
1791083413664,3054,-0.7305,-0.3154,0.5508,-7.68,-4.6,-0.4
1791083413674,3449,-0.709,-0.3462,0.5459,-13.04,14.37,-1.05
1791083413684,3607,-0.8486,-0.3677,0.3435,-15.28,17.63,-0.46
1791083413694,3648,-0.7783,-0.3562,0.5667,-10.09,-9.76,1.97
1791083413704,3833,-0.7439,-0.324,0.6155,-10.06,-1.04,2.79
1791083413714,4012,-0.7825,-0.3137,0.5156,-8.37,11.45,1.31
1791083413724,3904,-0.7996,-0.3113,0.4622,-3.59,5.16,2.2
1791083413734,3737,-0.7537,-0.3975,0.605,6.43,-1.22,3.24
1791083413744,3846,-0.7961,-0.3755,0.4209,15.3,6.89,6.08
1791083413754,4003,-0.7776,-0.3418,0.519,13.19,-0.29,6.87
1791083413764,4029,-0.7529,-0.29,0.4814,9.59,2.35,4.99
1791083413774,3855,-0.7949,-0.3403,0.4343,0.63,2.06,0.41
1791083413784,3527,-0.7842,-0.3965,0.447,-5.53,-5.77,-0.34
1791083413794,3241,-0.7749,-0.405,0.4827,-9.24,-8.31,1.07
1791083413804,3073,-0.7937,-0.4175,0.6682,-9.76,-2.21,3.45
1791083413814,3002,-0.7251,-0.3096,0.5801,-3.68,16.03,3.22
1791083413824,2953,-0.7957,-0.2651,0.375,-4.08,23.25,-0.2
1791083413834,2949,-0.8411,-0.3218,0.4285,0.5,5.8,-2.27
1791083413844,3080,-0.8174,-0.3384,0.4727,7.33,-10.6,-1.21
1791083413854,3316,-0.7866,-0.3486,0.4626,8.47,-17.85,0.2
1791083413864,3585,-0.8062,-0.3728,0.4377,5.11,-22.0,1.02
1791083413874,3814,-0.7991,-0.3677,0.5068,-1.02,-28.66,2.92
1791083413884,3985,-0.7812,-0.3799,0.5615,-9.77,-24.72,2.93
1791083413894,4085,-0.7705,-0.3862,0.5688,-15.27,-15.4,3.15
1791083413904,4092,-0.7871,-0.3491,0.4365,-18.92,-4.06,2.06
1791083413914,4062,-0.7732,-0.3245,0.5208,-19.02,-7.8,0.6
1791083413924,4169,-0.7595,-0.3284,0.5249,-12.78,-2.06,0.5
1791083413934,4476,-0.8091,-0.3701,0.457,-5.4,2.05,1.54
1791083413944,4861,-0.7998,-0.3877,0.4851,4.05,-7.01,4.21
1791083413954,5285,-0.7871,-0.3481,0.5488,11.62,-10.03,7.11
1791083413964,5663,-0.7754,-0.3022,0.582,15.11,-6.5,7.89
1791083413974,5856,-0.8074,-0.2898,0.501,12.73,-4.78,6.9
1791083413984,5947,-0.8018,-0.2671,0.5317,9.39,-12.08,5.19
1791083413994,6165,-0.7646,-0.2815,0.6262,5.85,-13.07,2.96
1791083414004,6575,-0.7881,-0.2751,0.5745,3.6,-6.78,0.64
1791083414014,6906,-0.7898,-0.3125,0.5178,-1.8,-6.15,-1.63
1791083414024,7129,-0.7795,-0.3452,0.5195,-5.8,-6.08,-3.13
1791083414034,7437,-0.7903,-0.3438,0.5154,-5.83,-4.53,-2.93
1791083414044,7934,-0.7915,-0.3787,0.5713,-3.4,-10.52,-1.82
1791083414054,8632,-0.7793,-0.3818,0.5469,0.2,-3.74,-0.06
1791083414064,9390,-0.7681,-0.3145,0.4993,3.97,0.56,1.3
1791083414074,9972,-0.762,-0.3022,0.5081,4.72,-1.08,0.7
1791083414084,10590,-0.7581,-0.2947,0.5051,6.11,-0.21,0.41
1791083414094,11358,-0.7896,-0.2839,0.4829,7.28,-3.18,0.15
1791083414104,12150,-0.7588,-0.2825,0.5364,3.74,-8.9,-3.34
1791083414114,12688,-0.7529,-0.3054,0.5469,0.23,-10.5,-7.56
1791083414124,12716,-0.7722,-0.3762,0.5571,-2.4,-9.18,-8.76
1791083414134,12668,-0.7615,-0.4194,0.5142,-4.34,-5.95,-6.58
1791083414144,13060,-0.7595,-0.4214,0.5071,-5.6,-3.82,-2.55
1791083414154,14223,-0.7478,-0.3242,0.5188,-2.37,-1.73,0.35
1791083414164,15864,-0.761,-0.3035,0.5376,0.09,-2.66,0.41
1791083414174,17822,-0.7686,-0.324,0.5547,2.84,-3.42,-0.2
1791083414184,20254,-0.7522,-0.3145,0.5571,5.97,-0.6,0.12
1791083414194,22899,-0.7717,-0.3169,0.5022,8.63,3.63,0.06
1791083414204,25315,-0.7676,-0.321,0.4954,9.19,1.22,-0.93
1791083414214,26993,-0.7593,-0.3396,0.5293,5.02,-1.69,-2.85
1791083414224,27197,-0.7708,-0.3743,0.5073,0.41,-1.56,-3.1
1791083414234,26430,-0.7795,-0.4048,0.4871,-1.85,-3.8,-1.53
1791083414244,25869,-0.7686,-0.428,0.5049,-4.69,-5.27,0.96
1791083414254,26289,-0.7527,-0.4001,0.5269,-6.03,-4.34,3.36
1791083414264,27702,-0.7366,-0.3386,0.5063,-5.8,0.56,4.4
1791083414274,29894,-0.7803,-0.3315,0.5327,-5.21,0.11,3.51
1791083414284,34672,-0.7566,-0.2949,0.5884,-3.86,-0.76,2.23
1791083414294,44210,-0.7632,-0.2988,0.5911,0.89,3.21,0.78
1791083414304,58454,-0.7827,-0.311,0.5471,4.73,7.05,0.29
1791083414314,74043,-0.5991,-0.3899,0.9814,7.28,11.19,0.14
1791083414324,84573,-0.7795,-0.3181,0.502,9.34,46.49,1.08
1791083414334,86671,-0.7891,-0.3103,0.4858,5.95,37.36,0.32
1791083414344,88587,-0.7976,-0.3247,0.502,3.71,26.89,0.09
1791083414354,91238,-0.79,-0.3333,0.4944,1.98,19.24,-0.11
1791083414364,92690,-0.7993,-0.3538,0.4526,0.34,12.85,0.03
1791083414374,93479,-0.7983,-0.363,0.4851,-0.84,8.47,0.12
1791083414384,93998,-0.7681,-0.3726,0.5508,-3.01,9.05,0.15
1791083414394,94522,-0.7742,-0.356,0.6118,-5.1,22.89,-0.95
1791083414404,95541,-0.7751,-0.3513,0.5347,-5.16,39.53,-2.15
1791083414414,97146,-0.7751,-0.3386,0.5012,-2.27,46.05,-1.45
1791083414424,98445,-0.8154,-0.3296,0.4451,2.03,44.99,-0.08
1791083414434,99484,-0.8267,-0.3225,0.4158,3.15,33.4,0.81
1791083414444,100445,-0.8171,-0.2913,0.4697,4.76,17.95,0.61
1791083414454,101290,-0.7939,-0.2793,0.5188,3.74,9.94,-0.17
1791083414464,102087,-0.8159,-0.3159,0.4614,0.69,13.25,-2.55
1791083414474,102843,-0.8323,-0.3496,0.4192,-0.38,11.86,-3.18
1791083414484,103619,-0.8242,-0.3506,0.3762,-0.64,0.9,-1.39
1791083414494,104177,-0.7903,-0.334,0.4417,-1.83,-10.63,-0.26
1791083414504,104672,-0.7356,-0.3088,0.6216,-1.02,-4.9,-0.37
1791083414514,105176,-0.7258,-0.3096,0.604,-1.47,31.5,-3.21
1791083414524,105900,-0.7798,-0.3574,0.4106,-0.32,53.4,-3.45
1791083414534,106590,-0.8013,-0.3455,0.3909,3.21,52.34,-0.47
1791083414544,107213,-0.8262,-0.3267,0.3516,3.57,41.11,0.7
1791083414554,107677,-0.8208,-0.3149,0.4011,-1.74,27.47,-0.03
1791083414564,108040,-0.7549,-0.3254,0.3816,-7.91,20.5,-4.32
1791083414574,108331,-0.8069,-0.3904,0.3896,-11.66,18.06,-6.58
1791083414584,108589,-0.7869,-0.3682,0.3303,-12.09,15.42,-5.05
1791083414594,108793,-0.8503,-0.3477,0.3738,-9.94,12.49,-3.68
1791083414604,108962,-0.875,-0.3176,0.4019,-3.21,3.83,-0.46
1791083414614,109102,-0.9092,-0.3206,0.4277,2.29,-3.13,1.27
1791083414624,109211,-0.842,-0.3118,0.4619,6.5,-10.26,1.91
1791083414634,109301,-0.7544,-0.3411,0.458,9.59,-1.98,2.08
1791083414644,109386,-0.7654,-0.3076,0.4192,7.56,14.02,-1.45
1791083414654,109516,-0.8618,-0.3379,0.3513,1.98,20.56,-6.18
1791083414664,109662,-0.8384,-0.3977,0.3594,0.06,15.05,-5.6
1791083414674,109786,-0.8569,-0.3745,0.375,1.02,8.87,-1.92
1791083414684,109899,-0.823,-0.3501,0.3696,2.09,4.24,1.05
1791083414694,110016,-0.8589,-0.3181,0.3726,5.68,-1.73,1.82
1791083414704,110092,-0.8645,-0.3218,0.3948,8.24,-10.0,0.26
1791083414714,110162,-0.821,-0.3123,0.53,9.82,-12.99,-1.57
1791083414724,110187,-0.8435,-0.2996,0.5391,16.61,-11.97,-1.65
1791083414734,110252,-0.8213,-0.375,0.4277,16.67,-2.66,-2.18
1791083414744,110351,-0.824,-0.3906,0.3821,19.5,-6.17,-1.4
1791083414754,110465,-0.8086,-0.3691,0.4053,23.8,-14.6,1.5
1791083414764,110560,-0.8093,-0.353,0.4282,24.32,-22.29,2.76
1791083414774,110656,-0.79,-0.3342,0.4846,22.56,-22.63,1.62
1791083414784,110751,-0.7861,-0.3542,0.4199,21.01,-17.53,-0.79
1791083414794,110833,-0.7998,-0.3611,0.3818,19.85,-19.92,-1.4
1791083414804,110934,-0.8032,-0.3372,0.4146,17.48,-26.44,-0.9
1791083414814,111023,-0.8037,-0.3213,0.4565,12.53,-32.93,-0.99
1791083414824,111086,-0.7866,-0.3186,0.4993,9.94,-36.66,-2.96
1791083414834,111134,-0.7646,-0.3118,0.5569,9.4,-26.73,-6.46
1791083414844,111147,-0.803,-0.3188,0.5645,7.45,-12.29,-8.81
1791083414854,111139,-0.8311,-0.311,0.5237,1.4,-7.05,-13.36
1791083414864,111106,-0.8313,-0.3362,0.4934,-5.02,-9.69,-17.16
1791083414874,111022,-0.8379,-0.3542,0.4739,-8.52,-17.82,-18.63
1791083414884,110944,-0.8354,-0.3562,0.4524,-10.63,-25.59,-18.66
1791083414894,110862,-0.8198,-0.3669,0.4282,-12.15,-37.69,-17.71
1791083414904,110783,-0.8103,-0.3689,0.4409,-11.91,-50.75,-16.75
1791083414914,110708,-0.7654,-0.3608,0.4963,-12.84,-56.96,-14.43
1791083414924,110634,-0.7642,-0.3574,0.5496,-9.59,-52.64,-12.34
1791083414934,110568,-0.7324,-0.3481,0.6975,-7.59,-41.76,-13.05
1791083414944,110508,-0.7029,-0.3467,0.7002,-10.95,-10.6,-15.21
1791083414954,110470,-0.7563,-0.3933,0.5154,-10.84,11.44,-14.58
1791083414964,110498,-0.8135,-0.4387,0.4441,-6.64,6.5,-13.04
1791083414974,110541,-0.8022,-0.3845,0.4956,-4.79,-3.94,-9.25
1791083414984,110596,-0.8052,-0.3521,0.5032,-6.76,-7.8,-12.52
1791083414994,110637,-0.8066,-0.3503,0.4875,-10.84,-10.56,-18.32
1791083415004,110709,-0.8032,-0.3479,0.4763,-12.02,-17.92,-19.34
1791083415014,110790,-0.7639,-0.3469,0.5356,-12.38,-27.76,-17.34
1791083415024,110872,-0.7708,-0.3894,0.5569,-15.71,-27.51,-16.82
1791083415034,110903,-0.7129,-0.4138,0.5259,-19.66,-26.03,-14.43
1791083415044,110938,-0.5547,-0.4897,0.4089,-27.59,-35.89,4.99
1791083415054,110929,-0.9414,-0.2483,0.5176,-34.06,-52.82,24.78
1791083415064,110891,-0.8567,-0.439,0.5098,-24.72,-49.42,-5.74
1791083415074,110973,-0.718,-0.3928,0.6079,-15.73,-56.05,-10.98
1791083415084,111015,-0.719,-0.3596,0.6172,-12.93,-50.02,-6.81
1791083415094,111058,-0.6721,-0.4231,0.5933,-9.27,-35.88,-6.84
1791083415104,111093,-0.6963,-0.3931,0.5283,-5.51,-19.6,-5.92
1791083415114,111097,-0.7056,-0.3955,0.5984,-6.5,-7.37,-6.5
1791083415124,111089,-0.7476,-0.3816,0.5769,-8.0,-1.65,-7.34
1791083415134,111081,-0.729,-0.376,0.564,-10.56,-1.94,-7.39
1791083415144,111075,-0.7402,-0.3838,0.5586,-10.81,-0.64,-7.42
1791083415154,111062,-0.7554,-0.3594,0.5762,-14.53,2.37,-10.47
1791083415164,111049,-0.771,-0.3926,0.5906,-21.89,-0.32,-13.88
1791083415174,111050,-0.4792,-0.6658,0.5154,-35.37,-10.18,-16.64
1791083415184,111037,-0.4917,-0.5613,0.4495,-53.04,-38.24,31.13
1791083415194,110848,-0.7043,-0.5015,0.3501,-27.24,-41.66,57.79
1791083415204,110639,-0.863,-0.2971,0.6819,26.21,-23.57,45.04
1791083415214,110593,-0.8755,-0.2825,0.7939,21.21,-10.02,19.02
1791083415224,110602,-0.7454,-0.3496,0.6716,-12.46,-1.15,2.41
1791083415234,110569,-0.6965,-0.4104,0.5903,-23.5,8.38,0.64
1791083415244,110523,-0.7,-0.4509,0.5144,-19.05,15.37,4.35
1791083415254,110499,-0.7441,-0.4514,0.4355,-4.5,18.63,5.5
1791083415264,110481,-0.7256,-0.4189,0.4597,10.41,12.79,4.64
1791083415274,110506,-0.7048,-0.4028,0.5315,14.61,4.08,5.91
1791083415284,110550,-0.7725,-0.2817,0.7046,-5.59,2.18,2.14
1791083415294,110587,-0.7153,-0.4128,0.572,-16.52,13.54,-3.39
1791083415304,110658,-0.7231,-0.3755,0.5579,-16.47,15.19,-3.27
1791083415314,110719,-0.7576,-0.4109,0.4822,-21.13,10.52,-5.15
1791083415324,110818,-0.7383,-0.4116,0.5063,-26.69,-4.27,-1.13
1791083415334,110865,-0.7156,-0.4131,0.5032,-32.87,-14.98,2.37
1791083415344,110821,-0.7043,-0.4451,0.5149,-29.85,-14.47,5.24
1791083415354,110672,-0.7034,-0.447,0.5049,-20.31,-11.05,7.88
1791083415364,110472,-0.6875,-0.4668,0.5051,-7.1,-6.41,10.18
1791083415374,110302,-0.6819,-0.4453,0.4995,9.65,2.85,12.06
1791083415384,110169,-0.6926,-0.4172,0.5322,25.97,19.91,11.36
1791083415394,110175,-0.71,-0.4099,0.5308,32.82,30.29,10.87
1791083415404,110338,-0.7173,-0.4053,0.5676,27.6,29.18,9.27
1791083415414,110498,-0.7415,-0.3691,0.5815,14.27,24.43,12.44
1791083415424,110567,-0.8005,-0.3894,0.551,-0.49,17.5,10.2
1791083415434,110567,-0.7744,-0.4048,0.5608,-13.48,5.21,7.16
1791083415444,110520,-0.7395,-0.4043,0.5613,-24.66,4.67,3.94
1791083415454,110419,-0.7302,-0.4314,0.5225,-31.28,9.02,1.25
1791083415464,110303,-0.7222,-0.4128,0.5283,-33.28,14.0,-0.06
1791083415474,110093,-0.708,-0.4058,0.5344,-27.85,21.28,0.0
1791083415484,109787,-0.7278,-0.395,0.5547,-19.82,33.21,-1.44
1791083415494,109477,-0.6519,-0.4358,0.4731,-12.34,43.6,-0.99
1791083415504,109187,-0.6521,-0.5002,0.5078,1.21,50.82,13.88
1791083415514,109083,-0.8484,-0.4512,0.5247,12.93,72.02,23.77
1791083415524,109145,-0.8765,-0.4604,0.3271,13.73,65.44,17.69
1791083415534,109285,-0.8767,-0.3997,0.3254,4.12,34.5,13.04
1791083415544,109289,-0.8894,-0.3718,0.4458,-2.95,13.34,7.1
1791083415554,109215,-0.7546,-0.4324,0.5061,3.22,7.97,2.47
1791083415564,109218,-0.7644,-0.427,0.4919,19.86,20.5,4.82
1791083415574,109289,-0.8457,-0.3945,0.4526,21.11,18.7,5.3
1791083415584,109457,-0.8477,-0.3887,0.4126,10.92,-3.04,5.97
1791083415594,109678,-0.8359,-0.3347,0.4631,-5.36,-27.6,7.04
1791083415604,109869,-0.7615,-0.3369,0.5195,-30.69,-38.89,3.27
1791083415614,109936,-0.7139,-0.3542,0.5581,-38.46,-30.63,1.04
1791083415624,110014,-0.7214,-0.4797,0.5442,-32.26,-9.18,1.57
1791083415634,110258,-0.7622,-0.4729,0.4141,-18.63,2.44,4.21
1791083415644,110650,-0.7581,-0.4487,0.3699,-6.41,3.88,10.44
1791083415654,110959,-0.7983,-0.4202,0.4021,-0.58,-0.44,14.58
1791083415664,111183,-0.7922,-0.3716,0.4758,-4.38,-8.7,14.18
1791083415674,111321,-0.7698,-0.3801,0.5166,-11.13,-13.79,11.15
1791083415684,111395,-0.7478,-0.376,0.533,-7.51,-2.2,7.76
1791083415694,111486,-0.7747,-0.3838,0.4651,-5.54,10.55,5.21
1791083415704,111633,-0.7659,-0.3799,0.4133,-7.37,18.09,1.82
1791083415714,111798,-0.8108,-0.3674,0.4131,-12.93,16.27,0.0
1791083415724,111948,-0.8206,-0.3821,0.4583,-21.68,1.98,0.12
1791083415734,112052,-0.7981,-0.3596,0.5374,-29.24,-11.1,-0.06
1791083415744,112095,-0.7437,-0.311,0.52,-34.67,-17.02,-0.24
1791083415754,112120,-0.7175,-0.3481,0.4866,-36.72,-16.37,-1.65
1791083415764,112235,-0.7349,-0.3774,0.4614,-30.5,-8.2,-3.91
1791083415774,112405,-0.7725,-0.3696,0.4485,-23.95,-3.76,-4.41
1791083415784,112568,-0.7788,-0.3572,0.4248,-15.71,-8.98,-1.74
1791083415794,112664,-0.7727,-0.3796,0.4175,-7.48,-14.63,2.58
1791083415804,112694,-0.7644,-0.4551,0.5015,-5.37,-10.82,1.37
1791083415814,112682,-0.7371,-0.4641,0.522,7.86,17.63,-3.11
1791083415824,112706,-0.791,-0.4897,0.4653,21.31,44.09,-4.75
1791083415834,112791,-0.8767,-0.4622,0.4258,21.47,43.51,-5.53
1791083415844,112907,-0.8364,-0.4746,0.3987,9.95,25.16,-3.51
1791083415854,113015,-0.8218,-0.4431,0.4036,-2.21,3.63,-0.95
1791083415864,113094,-0.7517,-0.4463,0.4116,-11.27,-11.74,2.64
1791083415874,113159,-0.7366,-0.4402,0.3906,-19.11,-8.73,1.68
1791083415884,113220,-0.6921,-0.4082,0.4395,-23.82,12.24,-1.73
1791083415894,113251,-0.7188,-0.4587,0.377,-13.37,42.52,-2.55
1791083415904,113297,-0.7698,-0.4463,0.3438,1.66,60.76,-1.54
1791083415914,113361,-0.7705,-0.4644,0.335,14.5,68.43,0.47
1791083415924,113427,-0.8396,-0.4465,0.4192,36.76,59.82,2.85
1791083415934,113476,-0.7468,-0.4492,0.5889,48.14,61.18,9.3
1791083415944,113532,-0.8633,-0.376,0.4412,59.24,68.79,11.63
1791083415954,113582,-0.9236,-0.4106,0.3879,49.44,47.77,15.98
1791083415964,113650,-0.8447,-0.3921,0.3428,41.31,25.33,16.9
1791083415974,113680,-0.7759,-0.3877,0.3738,45.69,11.01,19.36
1791083415984,113710,-0.8225,-0.3921,0.4409,40.31,4.46,21.16
1791083415994,113745,-0.8367,-0.3521,0.4775,26.7,8.75,16.61
1791083416004,113813,-0.8438,-0.344,0.4705,9.54,13.16,9.39
1791083416014,113896,-0.8481,-0.3621,0.3594,-2.67,12.11,3.63
1791083416024,113968,-0.8474,-0.3635,0.3186,-8.5,-2.08,5.73
1791083416034,114029,-0.825,-0.325,0.3818,-14.79,-21.57,9.28
1791083416044,114057,-0.7659,-0.2864,0.4185,-11.25,-28.81,12.55
1791083416054,114084,-0.8142,-0.3311,0.4983,1.73,-24.78,18.02
1791083416064,114107,-0.8464,-0.3657,0.4617,20.21,-11.34,19.91
1791083416074,114143,-0.8521,-0.4062,0.4031,35.36,-0.64,20.81
1791083416084,114216,-0.8347,-0.3792,0.3513,41.13,-1.37,22.14
1791083416094,114285,-0.7766,-0.3757,0.3132,44.05,-4.27,23.01
1791083416104,114342,-0.8059,-0.4045,0.3982,47.34,-5.05,22.89
1791083416114,114329,-0.8328,-0.3801,0.4758,51.68,7.39,18.26
1791083416124,114266,-0.8367,-0.3354,0.4041,52.38,26.11,13.13
1791083416134,114182,-0.8193,-0.3308,0.3406,46.75,36.81,9.28
1791083416144,114117,-0.8313,-0.3464,0.3354,41.92,30.67,11.54
1791083416154,114070,-0.884,-0.2668,0.3809,41.89,19.45,16.11
1791083416164,114049,-0.9072,-0.2817,0.4524,25.89,5.53,15.85
1791083416174,114059,-0.8462,-0.2483,0.4692,11.34,-15.24,14.92
1791083416184,114066,-0.8584,-0.3145,0.4753,14.85,-18.27,13.5
1791083416194,114053,-0.8213,-0.3215,0.4609,14.78,-16.5,11.34
1791083416204,114049,-0.8376,-0.3308,0.375,8.99,-14.32,9.05
1791083416214,114054,-0.7886,-0.238,0.3691,-2.82,-18.58,8.69
1791083416224,114081,-0.822,-0.2939,0.3489,-9.02,-23.77,4.44
1791083416234,114114,-0.8225,-0.3362,0.2886,-9.24,-22.37,-1.01
1791083416244,114138,-0.8267,-0.3188,0.3665,-12.08,-22.79,-3.4
1791083416254,114144,-0.8237,-0.2854,0.4727,-15.07,-18.96,-7.6
1791083416264,114155,-0.824,-0.3044,0.4841,-17.66,-10.79,-13.88
1791083416274,114175,-0.8713,-0.2927,0.4771,-17.07,-8.24,-17.83
1791083416284,114183,-0.8892,-0.3103,0.5046,-15.6,-17.59,-14.32
1791083416294,114149,-0.865,-0.304,0.5254,-15.6,-26.92,-5.24
1791083416304,114109,-0.833,-0.3301,0.4739,-14.0,-32.95,2.21
1791083416314,114094,-0.835,-0.3298,0.4521,-12.29,-33.95,2.64
1791083416324,114094,-0.8167,-0.3252,0.4233,-10.66,-26.23,1.83
1791083416334,114114,-0.7451,-0.3645,0.4062,-9.74,-25.57,6.63
1791083416344,114136,-0.7783,-0.3145,0.4819,-3.8,-19.45,4.81
1791083416354,114112,-0.8433,-0.2705,0.4922,-1.62,-10.81,9.4
1791083416364,114109,-0.8447,-0.2673,0.5017,3.39,0.41,11.07
1791083416374,114103,-0.8799,-0.2139,0.4714,7.36,0.35,13.02
1791083416384,114097,-0.8843,-0.2656,0.479,8.85,-4.27,19.8
1791083416394,114081,-0.8267,-0.3367,0.5376,2.55,-16.44,22.61
1791083416404,114059,-0.8718,-0.2488,0.5198,-11.95,-26.24,17.01
1791083416414,114006,-0.8271,-0.2881,0.5876,-24.96,-35.59,12.82
1791083416424,113954,-0.802,-0.3706,0.4846,-21.31,-33.15,10.98
1791083416434,113903,-0.7581,-0.4128,0.3889,-9.56,-23.42,10.75
1791083416444,113858,-0.7402,-0.3127,0.4434,9.13,-9.16,9.91
1791083416454,113833,-0.8098,-0.3049,0.498,18.67,10.9,10.17
1791083416464,113820,-0.8477,-0.2739,0.4609,22.87,35.56,3.16
1791083416474,113827,-0.8674,-0.259,0.4448,22.78,38.24,3.85
1791083416484,113865,-0.8428,-0.2258,0.5029,21.05,36.89,5.85
1791083416494,113889,-0.8821,-0.2727,0.5022,11.68,26.75,9.39
1791083416504,113931,-0.9478,-0.301,0.5225,-0.31,12.02,9.44
1791083416514,113957,-0.8794,-0.2925,0.5588,-12.05,-1.11,8.98
1791083416524,113980,-0.8469,-0.2871,0.561,-10.47,0.35,4.37
1791083416534,114003,-0.8093,-0.3462,0.4636,-2.72,2.82,3.71
1791083416544,114021,-0.7688,-0.3293,0.4246,7.31,2.11,4.11
1791083416554,114036,-0.8086,-0.3103,0.3931,10.23,3.62,2.5
1791083416564,114076,-0.8384,-0.2974,0.3994,5.91,3.97,-0.52
1791083416574,114110,-0.8435,-0.2908,0.4441,-1.77,4.7,-3.18
1791083416584,114141,-0.8594,-0.2874,0.4539,-8.35,8.63,-5.91
1791083416594,114159,-0.8682,-0.2803,0.4749,-14.4,6.61,-8.21
1791083416604,114200,-0.8572,-0.2754,0.5085,-18.17,0.98,-8.26
1791083416614,114233,-0.8306,-0.2742,0.5339,-16.02,2.2,-7.24
1791083416624,114279,-0.8313,-0.2751,0.5151,-8.6,9.88,-7.62
1791083416634,114329,-0.8279,-0.2959,0.4512,-0.85,16.15,-7.24
1791083416644,114384,-0.8308,-0.2903,0.3992,6.4,13.69,-4.38
1791083416654,114438,-0.832,-0.2922,0.3848,9.33,5.33,-1.05
1791083416664,114487,-0.8303,-0.2908,0.3928,8.46,-3.39,1.63
1791083416674,114513,-0.8308,-0.3044,0.3843,3.74,-9.8,2.79
1791083416684,114540,-0.8145,-0.3308,0.407,-1.97,-14.78,4.47
1791083416694,114533,-0.8176,-0.3086,0.4709,-5.18,-7.6,4.06
1791083416704,114520,-0.8257,-0.3059,0.4775,-6.96,-0.2,1.56
1791083416714,114511,-0.8174,-0.3,0.4895,-4.82,2.31,0.67
1791083416724,114509,-0.8413,-0.2878,0.4771,0.56,4.61,0.72
1791083416734,114480,-0.8501,-0.2874,0.4639,0.31,0.58,0.75
1791083416744,114439,-0.8318,-0.2844,0.4429,-1.48,-3.25,0.66
1791083416754,114381,-0.8364,-0.2944,0.4304,-2.69,-7.07,1.19
1791083416764,114323,-0.8374,-0.2996,0.4368,-2.98,-11.21,2.18
1791083416774,114258,-0.821,-0.2915,0.4258,-1.97,-13.37,3.25
1791083416784,114204,-0.8203,-0.3071,0.4277,-2.72,-14.02,3.79
1791083416794,114145,-0.8132,-0.3123,0.4358,-2.82,-14.26,3.95
1791083416804,114118,-0.8118,-0.3069,0.4727,-1.6,-9.8,2.99
1791083416814,114088,-0.8096,-0.3074,0.4966,-0.67,-0.43,1.42
1791083416824,114073,-0.8252,-0.2939,0.4807,1.02,9.66,-1.37
1791083416834,114080,-0.8433,-0.2986,0.4619,1.63,12.66,-2.72
1791083416844,114101,-0.8496,-0.2974,0.4395,1.47,9.24,-1.79
1791083416854,114125,-0.8477,-0.3013,0.4336,1.21,1.3,0.6
1791083416864,114156,-0.8435,-0.2961,0.4424,0.55,-6.84,3.01
1791083416874,114163,-0.8311,-0.2986,0.4695,0.08,-13.16,5.08
1791083416884,114185,-0.8152,-0.3044,0.4941,1.63,-10.99,5.1
1791083416894,114201,-0.8191,-0.303,0.4863,5.08,-1.85,3.21
1791083416904,114225,-0.8342,-0.3015,0.4602,6.98,6.35,1.48
1791083416914,114259,-0.8323,-0.2939,0.4294,7.45,8.0,1.19
1791083416924,114309,-0.8342,-0.2859,0.4299,5.92,6.0,1.19
1791083416934,114355,-0.8271,-0.2834,0.4778,2.32,6.4,0.96
1791083416944,114381,-0.8293,-0.2805,0.4438,-0.55,9.54,-0.81
1791083416954,114404,-0.8384,-0.2896,0.4307,-1.15,7.28,-1.31
1791083416964,114450,-0.8425,-0.2944,0.4233,-1.47,3.05,-0.44
1791083416974,114471,-0.8452,-0.2917,0.4424,-2.78,-1.69,0.03
1791083416984,114492,-0.8271,-0.291,0.4546,-1.74,-4.6,1.01
1791083416994,114502,-0.822,-0.301,0.4502,0.17,-6.11,2.17
1791083417004,114512,-0.8325,-0.3054,0.4543,1.01,-5.94,2.58
1791083417014,114525,-0.8372,-0.2952,0.4521,-2.24,-4.49,0.73
1791083417024,114528,-0.832,-0.2949,0.4849,-6.72,-2.63,-0.93
1791083417034,114527,-0.8318,-0.2861,0.4771,-8.09,5.86,-3.74
1791083417044,114533,-0.8398,-0.292,0.4617,-7.68,7.91,-4.12
1791083417054,114541,-0.8389,-0.2883,0.4448,-5.57,5.22,-2.18
1791083417064,114554,-0.8572,-0.2812,0.4402,-4.95,-0.43,-0.43
1791083417074,114553,-0.8435,-0.301,0.4229,-7.33,-6.81,-0.26
1791083417084,114573,-0.8259,-0.3093,0.4253,-8.15,-9.19,-0.46
1791083417094,114584,-0.8188,-0.3096,0.4517,-7.27,-7.82,-0.18
1791083417104,114602,-0.8145,-0.3132,0.4507,-4.47,-5.88,-0.5
1791083417114,114619,-0.8237,-0.3059,0.4524,-1.22,-3.4,-0.08
1791083417124,114649,-0.8296,-0.3105,0.449,1.05,-1.82,-0.24
1791083417134,114628,-0.8206,-0.3096,0.4502,1.88,-1.37,0.02
1791083417144,114512,-0.8313,-0.3037,0.4663,2.76,-0.64,0.24
1791083417154,114524,-0.8279,-0.2952,0.4983,3.65,3.44,-0.23
1791083417164,114571,-0.8271,-0.303,0.4978,3.57,11.66,-1.74
1791083417174,114607,-0.8271,-0.302,0.468,5.25,16.7,-2.75
1791083417184,114661,-0.8406,-0.2949,0.4539,6.37,17.57,-2.79
1791083417194,114707,-0.8472,-0.2925,0.4368,5.19,13.89,-1.62
1791083417204,114747,-0.8472,-0.3071,0.4202,3.05,7.15,-0.53
1791083417214,114784,-0.8391,-0.301,0.4075,1.22,-0.93,1.76
1791083417224,114816,-0.8511,-0.3013,0.4011,-2.84,-9.74,3.51
1791083417234,114826,-0.8455,-0.3035,0.4333,-6.87,-16.47,4.15
1791083417244,114839,-0.8235,-0.2939,0.4727,-8.78,-15.44,3.11
1791083417254,114829,-0.8235,-0.2996,0.4888,-6.4,-9.66,2.29
1791083417264,114820,-0.8179,-0.304,0.4753,-1.47,-4.0,1.37
1791083417274,114823,-0.8293,-0.2949,0.4509,3.22,1.95,1.1
1791083417284,114831,-0.8269,-0.2957,0.4363,4.52,3.57,1.28
1791083417294,114848,-0.8254,-0.3013,0.4175,3.18,4.18,0.98
1791083417304,114867,-0.8259,-0.3037,0.4036,1.39,1.91,1.24
1791083417314,114881,-0.8264,-0.2981,0.4065,0.44,-3.01,2.21
1791083417324,114904,-0.8411,-0.2993,0.4084,-1.37,-10.47,3.44
1791083417334,114915,-0.8333,-0.2944,0.4346,-4.9,-18.84,4.56
1791083417344,114907,-0.8271,-0.3008,0.4714,-8.23,-22.05,4.49
1791083417354,114861,-0.8206,-0.2937,0.5098,-7.89,-19.24,3.48
1791083417364,114794,-0.8167,-0.3008,0.522,-5.62,-10.69,1.65
1791083417374,114706,-0.8335,-0.2979,0.5127,-2.52,0.52,-0.37
1791083417384,114621,-0.8523,-0.2976,0.5002,-1.48,5.79,-1.56
1791083417394,114530,-0.8425,-0.3035,0.4595,-0.96,4.79,-1.16
1791083417404,114458,-0.8438,-0.2996,0.4558,0.11,0.81,0.32
1791083417414,114395,-0.8296,-0.3049,0.436,0.6,-2.44,1.16
1791083417424,114339,-0.8247,-0.304,0.4385,0.69,-2.66,1.13
1791083417434,114283,-0.8318,-0.3044,0.428,0.27,-0.5,0.87
1791083417444,114248,-0.8398,-0.3086,0.4312,-0.32,-1.39,1.13
1791083417454,114228,-0.8376,-0.3008,0.4419,-0.34,-3.6,1.97
1791083417464,114214,-0.8345,-0.3074,0.4456,0.03,-6.4,3.02
1791083417474,114217,-0.8267,-0.3047,0.4602,0.37,-7.92,3.56
1791083417484,114231,-0.8208,-0.2996,0.4758,2.85,-6.4,3.44
1791083417494,114239,-0.8169,-0.2832,0.5002,5.79,-1.24,2.15
1791083417504,114249,-0.8347,-0.2952,0.4778,7.19,3.63,0.93
1791083417514,114266,-0.8306,-0.2905,0.4766,7.21,4.52,0.6
1791083417524,114277,-0.8323,-0.302,0.4595,6.9,4.37,1.16
1791083417534,114297,-0.8323,-0.3042,0.4622,7.07,0.92,2.66
1791083417544,114323,-0.8252,-0.3118,0.4553,5.56,-2.34,4.09
1791083417554,114341,-0.8247,-0.3096,0.4668,3.77,-1.74,3.82
1791083417564,114381,-0.8164,-0.3042,0.4954,3.83,5.4,2.37
1791083417574,114410,-0.8232,-0.2925,0.4614,5.07,13.36,0.93
1791083417584,114444,-0.8303,-0.2839,0.4651,5.51,14.14,0.81
1791083417594,114478,-0.8394,-0.2747,0.469,6.38,11.63,1.51
1791083417604,114500,-0.8381,-0.2754,0.4546,7.07,7.36,1.98
1791083417614,114518,-0.8372,-0.2737,0.4543,6.87,3.98,2.4
1791083417624,114515,-0.8308,-0.2776,0.459,4.32,1.39,1.74
1791083417634,114522,-0.8101,-0.2705,0.4683,3.07,5.6,0.38
1791083417644,114515,-0.8237,-0.2749,0.4387,2.84,10.99,-1.27
1791083417654,114517,-0.8335,-0.2781,0.418,2.61,8.96,-0.81
1791083417664,114536,-0.8491,-0.2686,0.4138,0.29,1.91,0.34
1791083417674,114549,-0.8396,-0.2798,0.4351,-5.95,-7.11,1.01
1791083417684,114561,-0.8176,-0.2795,0.4578,-8.98,-7.63,0.23
1791083417694,114565,-0.8247,-0.2932,0.4565,-8.99,-2.03,-1.16
1791083417704,114567,-0.8247,-0.2869,0.4565,-6.32,0.87,-0.79
1791083417714,114587,-0.8374,-0.2864,0.4604,-1.31,3.39,-0.29
1791083417724,114605,-0.8608,-0.2852,0.4678,2.79,2.6,0.96
1791083417734,114631,-0.8516,-0.29,0.4573,4.11,-0.81,2.53
1791083417744,114654,-0.8354,-0.2886,0.4485,5.66,-3.76,3.56
1791083417754,114688,-0.8318,-0.2815,0.4353,6.61,-2.47,3.33
1791083417764,114712,-0.8398,-0.281,0.4397,5.45,-3.02,3.04
1791083417774,114741,-0.8225,-0.2812,0.4883,3.37,-1.66,2.69
1791083417784,114766,-0.8308,-0.281,0.4763,3.51,6.85,0.55
1791083417794,114781,-0.8447,-0.2915,0.4548,3.45,8.46,-0.09
1791083417804,114807,-0.8501,-0.2891,0.4436,2.99,7.57,-0.2
1791083417814,114836,-0.8577,-0.2883,0.4348,1.16,3.92,-0.37
1791083417824,114877,-0.8552,-0.2961,0.4299,-1.8,-1.11,0.02
1791083417834,114905,-0.8452,-0.29,0.4453,-4.41,-4.72,0.56
1791083417844,114956,-0.8276,-0.2908,0.48,-5.15,-2.87,-0.26
1791083417854,114989,-0.8132,-0.2925,0.4751,-1.68,6.02,-0.98
1791083417864,115014,-0.8396,-0.2891,0.4543,3.88,10.49,-0.38
1791083417874,115032,-0.8521,-0.2771,0.4426,5.97,9.63,0.32
1791083417884,115071,-0.8579,-0.2834,0.4451,4.09,4.49,1.16
1791083417894,115087,-0.8389,-0.3037,0.4258,1.51,-0.37,1.79
1791083417904,115099,-0.8069,-0.3015,0.3967,-1.4,0.29,0.79
1791083417914,115115,-0.8289,-0.3193,0.4006,-4.98,3.34,-0.75
1791083417924,115126,-0.8286,-0.3115,0.4368,-6.12,5.69,-0.05
1791083417934,115129,-0.8352,-0.2861,0.4541,-6.92,4.52,1.02
1791083417944,115150,-0.8464,-0.2913,0.4324,-8.4,3.48,0.08
1791083417954,115160,-0.8665,-0.2932,0.4219,-6.79,-2.55,2.18
1791083417964,115138,-0.8591,-0.2822,0.4448,-5.6,-9.8,3.42
1791083417974,115094,-0.8418,-0.2898,0.4504,-5.3,-14.4,3.83
1791083417984,115023,-0.8196,-0.2837,0.4736,-5.47,-11.94,2.67
1791083417994,114938,-0.8374,-0.2793,0.4761,-6.72,-4.03,0.26
1791083418004,114853,-0.8552,-0.2925,0.4524,-9.13,0.72,-1.71
1791083418014,114785,-0.8545,-0.2864,0.4397,-10.11,1.71,-2.02
1791083418024,114746,-0.8452,-0.291,0.4346,-9.3,0.06,-1.39
1791083418034,114708,-0.8386,-0.2993,0.4316,-5.5,0.14,-0.52
1791083418044,114676,-0.8379,-0.2903,0.4385,-1.45,0.55,0.47
1791083418054,114641,-0.8213,-0.2876,0.4536,1.11,2.27,0.56
1791083418064,114617,-0.8477,-0.2864,0.4224,2.21,3.86,0.9
1791083418074,114607,-0.8367,-0.2942,0.4248,2.23,0.7,1.63
1791083418084,114601,-0.8408,-0.2871,0.4316,1.95,-0.82,2.6
1791083418094,114612,-0.8521,-0.2998,0.4255,0.35,-2.14,2.79
1791083418104,114629,-0.835,-0.3,0.425,-1.13,-4.69,3.22
1791083418114,114649,-0.8313,-0.2852,0.447,-1.27,-5.76,3.62
1791083418124,114681,-0.8289,-0.2847,0.4597,-1.07,-2.7,2.78
1791083418134,114713,-0.8423,-0.2822,0.4509,-0.18,0.41,1.62
1791083418144,114749,-0.8293,-0.291,0.437,0.84,-0.06,2.14
1791083418154,114763,-0.8337,-0.2861,0.4399,2.96,-1.31,3.13
1791083418164,114794,-0.8418,-0.2852,0.4509,2.75,-2.37,2.99
1791083418174,114826,-0.8293,-0.2812,0.4534,1.94,-1.31,1.8
1791083418184,114861,-0.853,-0.2878,0.4387,0.64,0.93,1.18
1791083418194,114896,-0.8418,-0.2947,0.4626,0.31,0.67,1.19
1791083418204,114926,-0.8376,-0.2881,0.4531,2.96,4.17,1.27
1791083418214,114949,-0.8384,-0.2822,0.4487,4.75,4.46,1.73
1791083418224,114975,-0.8396,-0.2803,0.4409,5.42,4.87,1.76
1791083418234,114983,-0.8496,-0.2773,0.4377,5.92,2.49,2.27
1791083418244,114986,-0.8467,-0.2712,0.439,5.98,-0.21,2.63
1791083418254,114986,-0.8552,-0.2786,0.4368,4.27,-1.89,2.2
1791083418264,114982,-0.8533,-0.2798,0.4504,1.66,-5.21,1.77
1791083418274,114969,-0.8398,-0.2793,0.4458,-1.08,-6.61,1.33
1791083418284,114966,-0.8464,-0.2866,0.4426,-2.52,-6.43,0.78
1791083418294,114960,-0.8369,-0.2886,0.4316,-4.12,-5.92,0.08
1791083418304,114956,-0.8384,-0.2822,0.4326,-5.3,-6.47,0.38
1791083418314,114961,-0.8374,-0.2932,0.46,-5.8,-6.49,0.56
1791083418324,114958,-0.8274,-0.2883,0.4727,-4.4,-1.66,-0.12
1791083418334,114975,-0.8369,-0.2971,0.4468,-2.18,2.55,-0.89
1791083418344,114974,-0.8503,-0.2908,0.4373,-0.18,3.42,-0.56
1791083418354,114979,-0.8496,-0.2859,0.4346,0.5,1.97,0.09
1791083418364,114986,-0.8369,-0.282,0.4368,1.04,0.49,1.05
1791083418374,115002,-0.8396,-0.2808,0.4358,2.5,0.38,1.25
1791083418384,115021,-0.8418,-0.2847,0.4224,2.53,-1.1,1.19
1791083418394,115045,-0.8452,-0.2795,0.4307,-0.27,-3.76,1.19
1791083418404,115068,-0.8452,-0.2769,0.4622,-2.56,-6.67,1.02
1791083418414,115096,-0.8018,-0.2856,0.4651,-3.82,-5.07,-0.08
1791083418424,115121,-0.8613,-0.2852,0.457,-5.82,-0.11,-1.47
1791083418434,115122,-0.8428,-0.2871,0.4495,-6.09,-2.99,-1.1
1791083418444,115137,-0.8354,-0.2749,0.45,-4.41,-4.08,0.0
1791083418454,115145,-0.8359,-0.2812,0.4458,-2.79,-3.98,0.26
1791083418464,115162,-0.8306,-0.2825,0.4343,-1.19,-2.99,1.01
1791083418474,115168,-0.8408,-0.2803,0.4275,0.12,-2.6,1.45
1791083418484,115180,-0.8335,-0.2822,0.4355,2.17,-2.44,2.26
1791083418494,115184,-0.8384,-0.2849,0.4434,3.37,-1.28,2.66
1791083418504,115188,-0.8425,-0.2908,0.4348,3.01,-0.81,2.49
1791083418514,115181,-0.8516,-0.2876,0.4441,0.89,-3.59,2.58
1791083418524,115193,-0.8523,-0.2854,0.4487,-2.27,-6.02,2.21
1791083418534,115203,-0.8496,-0.2927,0.4697,-4.67,-5.6,0.87
1791083418544,115220,-0.8423,-0.291,0.4595,-6.2,-4.02,-0.66
1791083418554,115237,-0.8269,-0.293,0.457,-5.91,-1.6,-2.06
1791083418564,115251,-0.8411,-0.2832,0.4639,-5.3,0.17,-2.43
1791083418574,115259,-0.8491,-0.2861,0.4651,-5.19,-1.3,-2.05
1791083418584,115262,-0.8494,-0.2883,0.4602,-4.26,-3.97,-1.1
1791083418594,115239,-0.8389,-0.2878,0.4651,-3.07,-5.89,-0.35
1791083418604,115204,-0.8279,-0.2942,0.4592,-1.68,-5.95,0.56
1791083418614,115142,-0.823,-0.2812,0.4656,1.57,0.6,0.31
1791083418624,115063,-0.8345,-0.2842,0.4392,3.37,5.5,-0.4
1791083418634,114980,-0.8428,-0.2871,0.4148,4.02,5.48,-0.38
1791083418644,114912,-0.8547,-0.2793,0.4226,3.13,4.55,-0.29
1791083418654,114841,-0.8486,-0.283,0.4331,0.85,1.94,-0.52
1791083418664,114786,-0.8511,-0.2861,0.4636,-1.63,0.49,-0.56
1791083418674,114723,-0.8494,-0.282,0.4707,-2.63,2.03,-0.98
1791083418684,114686,-0.8452,-0.2878,0.4736,-2.29,0.76,-0.6
1791083418694,114659,-0.8481,-0.2856,0.4778,-1.02,-1.05,-0.06
1791083418704,114647,-0.8474,-0.283,0.4741,0.12,-4.6,1.37
1791083418714,114651,-0.8406,-0.2859,0.4797,-0.08,-7.33,1.85
1791083418724,114667,-0.8262,-0.2881,0.4675,-0.67,-5.6,0.9
1791083418734,114683,-0.8206,-0.2944,0.4688,-1.63,1.22,-0.66
1791083418744,114701,-0.8254,-0.3013,0.4387,-2.35,8.15,-2.63
1791083418754,114711,-0.8311,-0.2866,0.4265,-2.2,11.31,-2.81
1791083418764,114738,-0.834,-0.2991,0.3997,-0.35,8.9,-1.44
1791083418774,114761,-0.8269,-0.2878,0.3958,3.22,1.98,1.97
1791083418784,114790,-0.8259,-0.2908,0.4182,4.06,-4.23,4.44
1791083418794,114810,-0.8215,-0.2883,0.4119,5.4,-6.38,5.15
1791083418804,114846,-0.822,-0.2939,0.4131,6.06,-7.76,5.04
1791083418814,114874,-0.833,-0.2942,0.4084,4.17,-7.57,3.4
1791083418824,114911,-0.856,-0.2844,0.4441,-0.4,-9.59,2.11
1791083418834,114926,-0.8413,-0.2842,0.4797,-4.08,-11.76,1.44
1791083418844,114946,-0.8401,-0.2825,0.5012,-6.58,-11.34,0.55
1791083418854,114950,-0.8318,-0.2893,0.5146,-7.11,-8.14,-0.47
1791083418864,114953,-0.8237,-0.2837,0.5115,-4.27,-0.6,-1.62
1791083418874,114948,-0.8445,-0.2896,0.4614,-1.02,4.41,-2.24
1791083418884,114946,-0.8416,-0.2876,0.4436,0.63,2.76,-1.48
1791083418894,114946,-0.8401,-0.2861,0.4387,0.17,-0.38,-0.35
1791083418904,114928,-0.8513,-0.2891,0.4326,-0.37,-4.64,0.5
1791083418914,114921,-0.8335,-0.2993,0.4268,-1.37,-7.47,1.34
1791083418924,114905,-0.8408,-0.2949,0.4343,-2.61,-6.75,1.31
1791083418934,114889,-0.8369,-0.3079,0.4529,-2.67,-6.18,1.21
1791083418944,114873,-0.8235,-0.2944,0.4585,-0.23,-2.55,0.41
1791083418954,114867,-0.8496,-0.2803,0.4558,0.29,-0.79,0.08
1791083418964,114872,-0.8445,-0.2881,0.4531,-1.62,-4.58,0.49
1791083418974,114883,-0.832,-0.2878,0.4565,-2.41,-6.72,0.64
1791083418984,114893,-0.822,-0.2927,0.4678,-1.74,-5.85,0.38
1791083418994,114890,-0.8203,-0.292,0.4636,0.02,0.17,-0.61
1791083419004,114899,-0.8435,-0.302,0.4468,0.26,4.35,-1.83
1791083419014,114916,-0.8499,-0.29,0.448,-1.45,3.82,-1.63
1791083419024,114927,-0.8438,-0.2893,0.4631,-3.56,1.28,-0.82
1791083419034,114944,-0.8303,-0.2942,0.4629,-3.33,0.32,0.14
1791083419044,114963,-0.8279,-0.2798,0.4734,-0.61,-0.06,1.33
1791083419054,114981,-0.8286,-0.2874,0.457,1.68,-0.4,1.98
1791083419064,114988,-0.8223,-0.2874,0.4485,3.54,1.11,1.37
1791083419074,114997,-0.833,-0.291,0.4517,3.42,2.58,1.01
1791083419084,115015,-0.8416,-0.2859,0.4478,2.76,3.1,0.55
1791083419094,115023,-0.8376,-0.2837,0.4285,1.59,2.53,0.2
1791083419104,115030,-0.8528,-0.2888,0.436,0.4,-0.63,0.6
1791083419114,115029,-0.8462,-0.2903,0.4399,-2.55,-4.76,0.35
1791083419124,115042,-0.8252,-0.3035,0.4602,-6.52,-5.6,-0.53
1791083419134,115042,-0.8213,-0.3057,0.4553,-7.69,-0.26,-1.86
1791083419144,115049,-0.8323,-0.2974,0.4685,-7.18,4.82,-2.73
1791083419154,115045,-0.8372,-0.3083,0.4568,-5.01,6.89,-2.43
1791083419164,115062,-0.8521,-0.2991,0.4524,-0.76,4.27,-0.64
1791083419174,115060,-0.8335,-0.2839,0.4539,2.26,-0.11,1.08
1791083419184,115080,-0.8281,-0.2812,0.4421,3.71,-2.14,1.83
1791083419194,115082,-0.8257,-0.2834,0.4287,3.86,-3.21,1.69
1791083419204,115088,-0.834,-0.2886,0.4351,1.08,-3.76,0.66
1791083419214,115081,-0.8284,-0.2893,0.4346,-2.9,-5.24,-0.27
1791083419224,115067,-0.823,-0.2986,0.4309,-6.38,-6.79,-0.73
1791083419234,115051,-0.8152,-0.3032,0.4529,-7.19,-5.37,-0.92
1791083419244,115011,-0.8093,-0.3103,0.4407,-5.92,1.73,-2.5
1791083419254,114954,-0.8254,-0.2947,0.4304,-3.88,3.44,-2.31
1791083419264,114888,-0.8235,-0.293,0.4414,-1.86,1.76,-1.45
1791083419274,114793,-0.8391,-0.2927,0.4485,-0.47,-0.7,-0.66
1791083419284,114690,-0.8325,-0.2881,0.4573,0.41,-3.98,-0.14
1791083419294,114573,-0.8335,-0.2888,0.467,-0.03,-5.16,0.18
1791083419304,114451,-0.8296,-0.293,0.4829,0.37,-3.77,0.17
1791083419314,114322,-0.8389,-0.3,0.4741,1.13,-0.24,-0.24
1791083419324,114199,-0.8423,-0.3022,0.4529,1.77,0.73,-0.03
1791083419334,114100,-0.844,-0.3,0.4504,-0.03,-1.56,0.63
1791083419344,114018,-0.835,-0.2927,0.4504,-1.97,-2.92,0.84
1791083419354,113952,-0.8313,-0.2976,0.4507,-2.6,-3.5,1.16
1791083419364,113902,-0.8328,-0.2908,0.4597,-2.29,-3.8,1.36
1791083419374,113857,-0.8406,-0.2903,0.458,-1.83,-4.08,1.56
1791083419384,113830,-0.8376,-0.2998,0.4661,-1.21,-4.5,1.74
1791083419394,113802,-0.8379,-0.2974,0.4683,-0.44,-4.76,1.97
1791083419404,113791,-0.825,-0.2966,0.4648,-0.09,-3.11,2.02
1791083419414,113788,-0.8279,-0.2986,0.4629,1.18,-0.18,1.47
1791083419424,113794,-0.8376,-0.3018,0.4377,1.91,1.18,1.21
1791083419434,113804,-0.8433,-0.3032,0.436,0.43,-0.41,1.25
1791083419444,113824,-0.833,-0.2986,0.4485,-1.48,-1.94,0.95
1791083419454,113850,-0.8289,-0.2952,0.4456,-3.54,-2.06,0.37
1791083419464,113864,-0.8433,-0.2878,0.4778,-4.96,-2.35,0.02
1791083419474,113880,-0.8362,-0.2898,0.4795,-4.73,-2.09,-0.08
1791083419484,113895,-0.8381,-0.2896,0.4646,-2.73,-1.68,0.41
1791083419494,113894,-0.8362,-0.2959,0.45,-1.16,-1.68,0.64
1791083419504,113894,-0.8335,-0.2927,0.4399,-0.29,-1.94,0.96
1791083419514,113885,-0.8293,-0.2942,0.4578,0.15,-1.83,1.45
1791083419524,113866,-0.8359,-0.301,0.4417,0.73,-0.2,1.3
1791083419534,113853,-0.833,-0.2979,0.4412,1.57,-0.38,1.37
1791083419544,113841,-0.832,-0.3008,0.46,1.34,-1.4,1.73
1791083419554,113827,-0.8262,-0.2974,0.4568,0.76,0.21,0.75
1791083419564,113810,-0.8291,-0.291,0.4658,0.23,3.66,-0.52
1791083419574,113793,-0.8328,-0.2891,0.4622,0.02,5.79,-1.19
1791083419584,113774,-0.8413,-0.2832,0.4521,0.81,5.92,-1.4
1791083419594,113772,-0.8547,-0.2854,0.4465,-0.69,3.16,-0.85
1791083419604,113771,-0.8494,-0.2891,0.4443,-2.93,-1.22,-0.35
1791083419614,113777,-0.8364,-0.2927,0.4514,-3.04,-3.85,0.41
1791083419624,113775,-0.8347,-0.2991,0.4495,-1.51,-4.38,1.19
1791083419634,113777,-0.8269,-0.2927,0.4541,0.37,-4.7,1.88
1791083419644,113785,-0.825,-0.2917,0.4651,0.81,-3.69,1.98
1791083419654,113800,-0.8293,-0.293,0.4739,0.64,-1.94,1.39
1791083419664,113816,-0.8367,-0.2966,0.4502,0.53,-0.58,1.07
1791083419674,113839,-0.8296,-0.2971,0.4304,-0.14,-1.48,1.08
1791083419684,113854,-0.8291,-0.2986,0.4373,-1.5,-1.57,0.89
1791083419694,113876,-0.8196,-0.2976,0.4399,-2.0,0.76,-0.26
1791083419704,113899,-0.8274,-0.2959,0.4456,-1.19,2.89,-0.79
1791083419714,113915,-0.8301,-0.2944,0.4497,0.12,2.78,-0.29
1791083419724,113939,-0.8342,-0.2908,0.457,1.15,1.5,0.41
1791083419734,113970,-0.8196,-0.2915,0.4631,2.87,1.21,0.7
1791083419744,114002,-0.8293,-0.2866,0.4512,4.29,2.84,0.49
1791083419754,114039,-0.8303,-0.2883,0.4426,2.73,2.17,0.29
1791083419764,114065,-0.8389,-0.2944,0.428,-0.9,-0.29,0.17
1791083419774,114094,-0.8345,-0.3071,0.4482,-5.31,-3.53,-0.09
1791083419784,114114,-0.8289,-0.303,0.4646,-9.08,-3.15,-0.82
1791083419794,114105,-0.8308,-0.3042,0.4641,-8.0,-1.77,-0.72
1791083419804,114119,-0.832,-0.3025,0.4702,-3.83,-1.76,0.84
1791083419814,114132,-0.8308,-0.3071,0.4517,0.44,-1.76,1.95
1791083419824,114152,-0.8242,-0.2993,0.4504,3.31,-0.05,2.03
1791083419834,114171,-0.8262,-0.2981,0.4304,4.92,1.5,1.88
1791083419844,114191,-0.8291,-0.2961,0.4321,5.83,0.82,2.27
1791083419854,114207,-0.8462,-0.3069,0.416,4.47,-2.06,2.66
1791083419864,114230,-0.8337,-0.3037,0.4333,2.49,-5.88,2.99
1791083419874,114247,-0.8347,-0.2986,0.4561,-0.78,-5.56,2.46
1791083419884,114264,-0.8394,-0.2996,0.4497,-3.15,-4.15,1.56
1791083419894,114258,-0.8406,-0.29,0.4602,-4.26,-4.18,0.76
1791083419904,114241,-0.8318,-0.2874,0.4595,-4.23,-3.4,0.06
1791083419914,114182,-0.8359,-0.2891,0.468,-3.86,-2.21,-0.35
1791083419924,114094,-0.8313,-0.2908,0.4626,-1.79,-0.32,-0.47
1791083419934,113971,-0.8398,-0.2937,0.4604,1.18,1.51,-0.2
1791083419944,113849,-0.8474,-0.2932,0.47,3.02,0.81,0.61
1791083419954,113714,-0.8435,-0.302,0.4836,2.11,-0.17,0.64
1791083419964,113593,-0.8254,-0.2966,0.4846,0.76,3.92,-0.46
1791083419974,113484,-0.8369,-0.303,0.4597,-0.09,7.54,-1.19
1791083419984,113410,-0.8433,-0.2935,0.4451,-0.46,7.57,-1.22
1791083419994,113353,-0.842,-0.2937,0.4221,-1.59,4.72,-0.46
1791083420004,113335,-0.8433,-0.3042,0.4165,-3.33,-0.14,0.47
1791083420014,113322,-0.822,-0.3027,0.4248,-2.6,-3.85,1.85
1791083420024,113325,-0.8237,-0.3032,0.4478,0.44,-1.82,1.97
1791083420034,113336,-0.8379,-0.2756,0.4849,4.37,2.38,1.36
1791083420044,113368,-0.8499,-0.2913,0.4321,5.8,0.92,2.26
1791083420054,113405,-0.8125,-0.2898,0.4636,3.94,-3.91,3.28
1791083420064,113445,-0.8247,-0.2886,0.4541,3.4,0.21,1.83
1791083420074,113490,-0.8306,-0.283,0.4553,1.89,0.99,0.99
1791083420084,113535,-0.8306,-0.2798,0.4619,-0.73,-0.99,0.61
1791083420094,113581,-0.825,-0.2927,0.4519,-4.14,-2.02,-0.2
1791083420104,113620,-0.8279,-0.3022,0.4402,-6.52,-1.94,-0.89
1791083420114,113661,-0.8279,-0.2981,0.4343,-8.2,-2.93,-0.93
1791083420124,113705,-0.8274,-0.2952,0.4302,-7.69,-2.29,-1.13
1791083420134,113742,-0.8293,-0.303,0.4231,-6.38,-2.95,-0.46
1791083420144,113763,-0.8193,-0.2961,0.4541,-2.61,-1.48,0.02
1791083420154,113776,-0.8293,-0.3005,0.4441,2.2,2.15,0.26
1791083420164,113797,-0.8289,-0.302,0.4407,5.05,2.27,0.53
1791083420174,113802,-0.8313,-0.2981,0.4541,5.34,3.6,0.87
1791083420184,113822,-0.8347,-0.2942,0.4607,3.83,5.01,0.49
1791083420194,113835,-0.8462,-0.2935,0.4543,2.73,3.34,0.79
1791083420204,113850,-0.8474,-0.2915,0.4543,1.05,0.24,1.08
1791083420214,113854,-0.8496,-0.2905,0.4624,-1.8,-4.56,1.45
1791083420224,113852,-0.8367,-0.291,0.4575,-4.27,-6.82,1.15
1791083420234,113847,-0.8374,-0.2976,0.4497,-4.96,-5.79,0.5
1791083420244,113837,-0.8357,-0.2959,0.4592,-4.41,-3.5,0.2
1791083420254,113834,-0.8367,-0.2961,0.4446,-3.07,-0.55,-0.24
1791083420264,113828,-0.8347,-0.3008,0.4417,-1.59,0.5,-0.14
1791083420274,113843,-0.8289,-0.3027,0.437,0.92,1.68,0.06
1791083420284,113862,-0.8298,-0.2988,0.4348,3.53,3.37,0.4
1791083420294,113904,-0.8362,-0.2988,0.4246,4.37,3.42,0.66
1791083420304,113948,-0.8354,-0.2925,0.4365,3.1,2.08,0.64
1791083420314,114001,-0.8374,-0.2876,0.4502,1.01,1.53,0.4
1791083420324,114043,-0.8401,-0.2883,0.4514,-1.62,-1.05,0.34
1791083420334,114097,-0.8376,-0.2908,0.4497,-2.87,-3.5,0.63
1791083420344,114131,-0.8362,-0.2883,0.4482,-4.08,-5.36,0.75
1791083420354,114161,-0.8303,-0.2893,0.4849,-3.74,-4.7,0.56
1791083420364,114190,-0.8269,-0.2922,0.4724,-1.4,-0.78,0.34
1791083420374,114213,-0.8386,-0.2954,0.449,1.02,0.15,0.84
1791083420384,114251,-0.8337,-0.3066,0.4399,1.42,-1.86,1.13
1791083420394,114282,-0.8225,-0.3003,0.4458,1.77,-1.21,0.96
1791083420404,114319,-0.8281,-0.2976,0.4424,2.23,1.07,0.29
1791083420414,114350,-0.8301,-0.2971,0.4238,1.04,1.31,-0.49
1791083420424,114397,-0.8369,-0.3018,0.4102,-2.2,-0.11,-1.1
1791083420434,114434,-0.8242,-0.291,0.4294,-5.8,-3.34,-1.27
1791083420444,114462,-0.8245,-0.2883,0.4404,-7.94,-5.01,-1.57
1791083420454,114489,-0.8352,-0.2974,0.4521,-7.77,-5.68,-1.08
1791083420464,114492,-0.8372,-0.302,0.4595,-6.23,-6.53,-0.21
1791083420474,114505,-0.8452,-0.2971,0.4692,-4.4,-7.89,1.02
1791083420484,114517,-0.8364,-0.3052,0.481,-2.61,-6.4,1.53
1791083420494,114523,-0.8323,-0.3083,0.4602,-1.59,-4.35,1.27
1791083420504,114543,-0.8367,-0.3079,0.4656,-0.85,-1.83,0.84
1791083420514,114561,-0.8325,-0.3171,0.46,-1.3,-0.46,0.31
1791083420524,114589,-0.8318,-0.3127,0.4529,-1.62,0.93,0.09
1791083420534,114604,-0.835,-0.3108,0.4458,-1.56,0.95,0.06
1791083420544,114611,-0.8347,-0.3137,0.4421,-0.99,0.64,0.44
1791083420554,114592,-0.8325,-0.3096,0.446,1.51,-0.15,1.74
1791083420564,114555,-0.8325,-0.2993,0.4482,4.18,0.95,2.73
1791083420574,114490,-0.8516,-0.3013,0.4517,4.7,0.76,3.05
1791083420584,114399,-0.8464,-0.2908,0.448,3.54,-0.79,3.1
1791083420594,114303,-0.8389,-0.2961,0.4744,0.87,-1.25,2.61
1791083420604,114216,-0.8416,-0.2869,0.4836,-0.5,2.38,1.59
1791083420614,114117,-0.8562,-0.2864,0.488,-0.95,4.09,1.11
1791083420624,114040,-0.8564,-0.2883,0.4707,-1.68,3.69,0.92
1791083420634,113982,-0.843,-0.2874,0.4749,-2.41,0.92,1.34
1791083420644,113941,-0.8301,-0.2922,0.4497,-1.71,1.33,1.19
1791083420654,113921,-0.8342,-0.2988,0.4329,-0.55,2.41,1.13
1791083420664,113916,-0.8237,-0.2932,0.4084,-0.02,2.55,1.19
1791083420674,113930,-0.8352,-0.2952,0.4067,0.23,-0.21,1.89
1791083420684,113952,-0.8298,-0.2947,0.4309,-0.03,-3.62,2.34
1791083420694,113983,-0.8206,-0.2947,0.4392,0.06,-3.89,2.17
1791083420704,114023,-0.8213,-0.2976,0.4431,0.37,-1.74,1.25
1791083420714,114057,-0.8232,-0.2905,0.4534,0.99,2.2,0.29
1791083420724,114101,-0.8301,-0.2886,0.4463,1.97,4.35,-0.02
1791083420734,114158,-0.8281,-0.28,0.4456,1.33,3.3,0.37
1791083420744,114222,-0.834,-0.2844,0.4734,-0.12,3.08,-0.2
1791083420754,114272,-0.8369,-0.292,0.4529,-1.05,3.37,-0.7
1791083420764,114333,-0.8359,-0.2917,0.4492,-2.08,-0.12,-0.27
1791083420774,114395,-0.834,-0.2898,0.4551,-2.47,-2.47,0.17
1791083420784,114452,-0.8271,-0.2991,0.4397,-2.43,-3.24,0.34
1791083420794,114486,-0.8284,-0.3044,0.4307,-1.77,-3.1,0.49
1791083420804,114502,-0.8357,-0.2976,0.4346,-1.39,-2.89,0.52
1791083420814,114529,-0.833,-0.2966,0.4304,-0.85,-3.1,0.7
1791083420824,114547,-0.8369,-0.3044,0.4336,0.09,-3.86,0.93
1791083420834,114532,-0.8325,-0.3035,0.4541,0.96,-2.32,0.49
1791083420844,114523,-0.8333,-0.2947,0.4487,0.9,0.17,-0.08
1791083420854,114514,-0.8369,-0.2935,0.4604,0.49,1.13,-0.06
1791083420864,114496,-0.8503,-0.2935,0.4565,0.64,1.56,0.11
1791083420874,114474,-0.8406,-0.2939,0.4619,0.05,-0.79,0.7
1791083420884,114466,-0.8328,-0.29,0.4583,-0.11,-1.85,1.16
1791083420894,114454,-0.834,-0.3015,0.4524,-0.03,-0.35,0.85
1791083420904,114458,-0.8394,-0.2957,0.4414,-0.46,0.92,0.17
1791083420914,114464,-0.8462,-0.3022,0.4395,-1.28,-1.33,0.61
1791083420924,114482,-0.8459,-0.304,0.4551,-2.87,-4.06,0.58
1791083420934,114499,-0.8359,-0.3086,0.4429,-3.24,-3.39,0.14
1791083420944,114510,-0.8303,-0.2942,0.4189,-2.93,-1.71,0.06
1791083420954,114518,-0.8325,-0.3015,0.439,-2.69,-1.05,0.49
1791083420964,114539,-0.8328,-0.2971,0.4551,-1.42,-0.2,0.76
1791083420974,114556,-0.8262,-0.2976,0.4478,-0.31,-0.6,1.39
1791083420984,114580,-0.8308,-0.2964,0.4487,1.98,0.56,1.51
1791083420994,114615,-0.8374,-0.2883,0.4529,3.28,3.18,0.92
1791083421004,114648,-0.8406,-0.2903,0.4375,2.81,4.87,0.5
1791083421014,114691,-0.8413,-0.281,0.4443,2.69,1.98,1.02
1791083421024,114725,-0.8501,-0.2839,0.4382,1.82,-1.97,1.68
1791083421034,114753,-0.8418,-0.2979,0.447,-0.43,-5.91,2.12
1791083421044,114787,-0.8281,-0.3054,0.4397,-2.32,-7.19,1.85
1791083421054,114808,-0.8357,-0.3059,0.4512,-3.37,-4.96,0.79
1791083421064,114836,-0.835,-0.2952,0.4421,-4.31,-1.98,-0.56
1791083421074,114839,-0.8396,-0.2839,0.4468,-4.29,0.43,-1.05
1791083421084,114859,-0.8384,-0.2917,0.4448,-2.05,0.58,-0.6
1791083421094,114874,-0.8352,-0.2834,0.4463,0.81,-1.15,0.27
1791083421104,114890,-0.8308,-0.2893,0.4377,2.9,-2.18,1.15
1791083421114,114907,-0.8254,-0.2993,0.4199,2.66,-1.28,0.31
1791083421124,114927,-0.8179,-0.2986,0.4304,0.12,0.87,-0.87
1791083421134,114940,-0.8298,-0.2935,0.4429,-1.18,1.97,-1.71
1791083421144,114958,-0.8467,-0.2905,0.4561,-2.0,0.03,-1.21
1791083421154,114966,-0.8586,-0.2942,0.4717,-3.54,-3.91,-0.14
1791083421164,114989,-0.8472,-0.303,0.4592,-4.82,-6.18,0.12
1791083421174,114995,-0.8376,-0.2981,0.4492,-4.72,-6.55,0.43
1791083421184,114996,-0.8267,-0.3013,0.4495,-3.33,-5.83,0.6
1791083421194,115005,-0.8171,-0.3008,0.4421,-0.95,-2.55,0.32
1791083421204,115000,-0.8296,-0.3044,0.4551,0.93,1.4,-0.44
1791083421214,114993,-0.8303,-0.2942,0.4392,2.95,2.7,-0.52
1791083421224,114994,-0.8301,-0.3025,0.4333,3.94,1.54,0.08
1791083421234,114973,-0.824,-0.3059,0.436,2.69,0.0,0.17
1791083421244,114933,-0.834,-0.3069,0.4341,-0.37,1.18,-0.52
1791083421254,114854,-0.8403,-0.2959,0.4358,-3.31,-0.84,-0.6
1791083421264,114758,-0.8447,-0.3,0.4592,-5.34,-4.87,0.09
1791083421274,114639,-0.8403,-0.3015,0.479,-6.35,-6.43,0.31
1791083421284,114510,-0.8359,-0.3,0.4858,-4.98,-3.71,0.26
1791083421294,114381,-0.8467,-0.302,0.4705,-2.41,-1.51,0.66
1791083421304,114255,-0.8337,-0.313,0.467,0.24,0.31,0.82
1791083421314,114165,-0.8394,-0.2961,0.4739,1.59,3.07,0.99
1791083421324,114081,-0.8418,-0.2915,0.4722,2.7,4.06,0.92
1791083421334,114032,-0.8418,-0.2969,0.4487,3.85,3.22,1.33
1791083421344,114002,-0.8342,-0.3018,0.4141,2.78,-0.05,1.91
1791083421354,114001,-0.822,-0.301,0.4229,0.41,-2.63,1.88
1791083421364,114003,-0.8167,-0.302,0.4216,-1.91,-2.98,1.13
1791083421374,114014,-0.8254,-0.2986,0.4141,-3.39,-1.44,0.09
1791083421384,114026,-0.8367,-0.2983,0.4399,-5.47,-2.18,-0.53
1791083421394,114023,-0.8269,-0.2969,0.4468,-6.11,-2.31,-0.35
1791083421404,114032,-0.8298,-0.2979,0.4568,-3.01,-2.31,0.23
1791083421414,114043,-0.8274,-0.2996,0.481,-0.06,-1.88,1.21
1791083421424,114056,-0.8325,-0.2988,0.4788,1.28,1.05,0.66
1791083421434,114093,-0.833,-0.3035,0.4546,2.53,3.57,0.06
1791083421444,114123,-0.832,-0.3035,0.4512,2.52,2.52,0.14
1791083421454,114171,-0.8401,-0.3057,0.4363,0.87,0.84,0.26
1791083421464,114214,-0.8367,-0.2991,0.438,-1.36,-1.57,0.44
1791083421474,114245,-0.8303,-0.3037,0.4353,-2.46,-3.76,0.81
1791083421484,114272,-0.832,-0.304,0.4314,-2.14,-3.54,0.78
1791083421494,114281,-0.8323,-0.3042,0.426,-1.01,-1.73,0.84
1791083421504,114288,-0.8291,-0.2952,0.4446,0.32,-0.82,0.82
1791083421514,114285,-0.8374,-0.2927,0.4565,2.23,2.23,0.26
1791083421524,114278,-0.8464,-0.2849,0.4551,3.56,3.4,0.12
1791083421534,114275,-0.8511,-0.2891,0.4509,3.25,1.56,0.32
1791083421544,114271,-0.8474,-0.293,0.4438,1.15,-1.21,0.72
1791083421554,114260,-0.8462,-0.2939,0.4524,-2.69,-3.65,0.38
1791083421564,114240,-0.8379,-0.3005,0.4504,-6.56,-4.53,-0.52
1791083421574,114222,-0.8386,-0.3049,0.449,-8.2,-5.51,-0.52
1791083421584,114199,-0.8372,-0.3032,0.4722,-7.47,-5.19,-0.21
1791083421594,114180,-0.8364,-0.3113,0.4624,-5.4,-3.74,0.09
1791083421604,114151,-0.8311,-0.3035,0.46,-1.6,-1.92,0.37
1791083421614,114149,-0.8257,-0.3096,0.4421,2.2,0.46,0.98
1791083421624,114163,-0.8291,-0.3081,0.4348,4.66,2.05,1.42
1791083421634,114186,-0.8293,-0.3057,0.4348,4.99,3.07,1.25
1791083421644,114221,-0.8284,-0.3069,0.4355,4.79,4.79,0.87
1791083421654,114257,-0.8394,-0.301,0.4377,3.74,4.67,0.9
1791083421664,114296,-0.8369,-0.2942,0.4375,1.65,2.64,0.92
1791083421674,114335,-0.834,-0.2939,0.4419,-0.24,0.63,0.66
1791083421684,114377,-0.8267,-0.2896,0.4419,-1.25,-1.11,1.04
1791083421694,114402,-0.8306,-0.2871,0.4541,-1.24,-2.09,0.99
1791083421704,114443,-0.8357,-0.2932,0.4507,-1.51,-2.18,0.95
1791083421714,114463,-0.8367,-0.2932,0.4375,-1.97,-3.62,0.82
1791083421724,114498,-0.8325,-0.3044,0.4465,-2.67,-6.06,1.4
1791083421734,114521,-0.8325,-0.3091,0.4507,-2.93,-5.31,0.84
1791083421744,114545,-0.8333,-0.3137,0.4495,-4.06,-3.24,0.0
1791083421754,114564,-0.8281,-0.3191,0.4438,-4.58,-1.51,-0.32
1791083421764,114582,-0.8298,-0.3188,0.4402,-3.1,-0.63,-0.37
1791083421774,114604,-0.8284,-0.3103,0.4558,-1.51,0.93,0.14
1791083421784,114621,-0.8259,-0.3049,0.4456,1.62,3.11,0.08
1791083421794,114645,-0.832,-0.2957,0.448,4.6,5.07,0.61
1791083421804,114673,-0.8367,-0.293,0.4336,5.34,4.43,0.99
1791083421814,114697,-0.8364,-0.2957,0.4431,3.94,2.03,1.28
1791083421824,114732,-0.8367,-0.2925,0.4465,1.39,-1.6,1.56
1791083421834,114755,-0.8293,-0.2957,0.4509,-0.82,-3.89,1.33
1791083421844,114775,-0.8303,-0.2905,0.4446,-2.46,-3.83,1.04
1791083421854,114786,-0.8357,-0.2971,0.4541,-4.06,-4.5,0.66
1791083421864,114799,-0.823,-0.2988,0.4619,-3.76,-4.55,0.69
1791083421874,114815,-0.8301,-0.2983,0.4443,-3.11,-0.75,-0.56
1791083421884,114823,-0.8357,-0.3057,0.4209,-3.1,1.02,-1.16
1791083421894,114843,-0.8367,-0.3054,0.415,-2.93,-0.87,-0.06
1791083421904,114863,-0.8284,-0.3052,0.4265,-2.31,-3.1,0.61
1791083421914,114871,-0.825,-0.3147,0.4358,-1.37,-3.53,0.96
1791083421924,114879,-0.8235,-0.3081,0.4465,0.61,-1.77,0.99
1791083421934,114876,-0.8359,-0.3032,0.4612,2.52,1.22,0.75
1791083421944,114855,-0.8384,-0.2964,0.468,3.44,3.11,0.56
1791083421954,114788,-0.8486,-0.2913,0.4641,3.73,2.75,0.95
1791083421964,114719,-0.8508,-0.29,0.4629,3.21,0.82,1.37
1791083421974,114631,-0.8569,-0.2898,0.4597,0.56,-2.89,1.53
1791083421984,114522,-0.844,-0.2954,0.4485,-2.76,-5.48,1.27
1791083421994,114403,-0.8372,-0.3022,0.4473,-4.92,-5.15,0.82
1791083422004,114292,-0.8401,-0.3003,0.4436,-5.4,-3.86,0.12
1791083422014,114175,-0.8379,-0.3086,0.4341,-5.11,-2.79,-0.03
1791083422024,114074,-0.8347,-0.3088,0.4412,-4.18,-2.08,0.12
1791083422034,113973,-0.8315,-0.3088,0.4404,-2.05,-1.28,0.69
1791083422044,113916,-0.8281,-0.3069,0.437,0.63,-0.73,1.59
1791083422054,113862,-0.8301,-0.3069,0.4336,2.55,-0.64,2.18
1791083422064,113841,-0.8325,-0.3057,0.4404,2.79,-0.89,2.08
1791083422074,113836,-0.8293,-0.2991,0.4492,1.63,-0.5,1.66
1791083422084,113867,-0.8342,-0.2971,0.4644,-0.15,-0.67,1.31
1791083422094,113890,-0.8418,-0.2969,0.469,-1.25,-1.56,1.34
1791083422104,113932,-0.8342,-0.2979,0.4705,-1.18,-2.18,1.11
1791083422114,113962,-0.8369,-0.2974,0.4714,-0.35,-1.31,1.02
1791083422124,113988,-0.8289,-0.2917,0.4541,0.64,0.34,0.55
1791083422134,114017,-0.8303,-0.2925,0.4414,0.76,1.31,0.52
1791083422144,114047,-0.8301,-0.2878,0.4355,-0.11,0.4,0.58
1791083422154,114076,-0.8274,-0.2949,0.4292,-1.42,-1.33,0.5
1791083422164,114105,-0.8271,-0.3008,0.4302,-2.47,-2.9,0.67
1791083422174,114143,-0.8264,-0.3052,0.4346,-2.43,-4.58,1.02
1791083422184,114170,-0.8171,-0.3081,0.429,-1.76,-2.93,0.41
1791083422194,114179,-0.8311,-0.3062,0.4277,-1.82,-1.39,0.09
1791083422204,114202,-0.8337,-0.3066,0.448,-1.91,-2.26,0.37
1791083422214,114207,-0.8262,-0.3057,0.4666,-0.67,-2.29,0.82
1791083422224,114200,-0.8359,-0.3071,0.4658,1.39,-0.49,0.76
1791083422234,114196,-0.8389,-0.3025,0.4563,3.16,2.15,0.56
1791083422244,114189,-0.8394,-0.2986,0.4565,3.19,1.85,0.73
1791083422254,114194,-0.8362,-0.293,0.4712,1.91,1.37,0.53
1791083422264,114191,-0.8394,-0.2964,0.4658,-0.32,-0.08,0.26
1791083422274,114190,-0.8374,-0.2976,0.4568,-2.15,-0.69,0.05
1791083422284,114189,-0.8374,-0.2988,0.4434,-3.47,-2.14,-0.06
1791083422294,114188,-0.8357,-0.3059,0.4365,-3.94,-2.95,0.43
1791083422304,114184,-0.8252,-0.3044,0.4275,-3.89,-3.83,1.15
1791083422314,114183,-0.8269,-0.3101,0.4539,-3.1,-2.64,1.18
1791083422324,114184,-0.8328,-0.3076,0.4292,-1.45,0.31,0.72
1791083422334,114194,-0.8291,-0.3064,0.4456,-0.56,0.61,0.92
1791083422344,114210,-0.8318,-0.2998,0.4534,0.35,1.05,1.08
1791083422354,114229,-0.8374,-0.3015,0.4529,1.57,0.87,1.47
1791083422364,114252,-0.8352,-0.2986,0.4531,2.55,-0.06,1.73
1791083422374,114272,-0.8298,-0.3,0.4578,1.94,0.26,1.34
1791083422384,114311,-0.8311,-0.293,0.4448,0.79,1.37,0.5
1791083422394,114348,-0.835,-0.2932,0.4409,-0.52,0.64,0.29
1791083422404,114388,-0.8408,-0.2932,0.4434,-1.71,-1.18,0.55
1791083422414,114440,-0.8406,-0.2988,0.4473,-3.05,-3.21,0.38
1791083422424,114487,-0.8342,-0.2988,0.4473,-3.97,-3.36,-0.06
1791083422434,114513,-0.822,-0.2974,0.4419,-3.19,-2.58,0.31
1791083422444,114533,-0.8271,-0.3027,0.4453,-1.48,-1.83,0.64
1791083422454,114556,-0.8301,-0.3057,0.4351,0.43,-1.27,1.01
1791083422464,114579,-0.8232,-0.2986,0.4485,1.56,-1.19,1.45
1791083422474,114594,-0.8306,-0.3015,0.4536,1.89,0.21,1.15
1791083422484,114625,-0.8289,-0.3049,0.447,1.24,1.02,0.73
1791083422494,114654,-0.8281,-0.3027,0.45,0.56,0.92,0.53
1791083422504,114689,-0.8376,-0.3049,0.4377,-0.6,-0.27,0.37
1791083422514,114727,-0.8418,-0.2993,0.4395,-1.44,-2.0,0.49
1791083422524,114749,-0.8345,-0.3003,0.4521,-1.62,-2.46,0.56
1791083422534,114776,-0.8328,-0.2971,0.4563,-0.55,-1.97,0.7
1791083422544,114798,-0.8413,-0.2932,0.4558,0.96,-0.06,0.84
1791083422554,114826,-0.842,-0.2932,0.4578,1.8,0.12,1.04
1791083422564,114849,-0.8335,-0.2917,0.4456,2.21,0.35,1.44
1791083422574,114871,-0.8325,-0.2952,0.447,1.4,-0.81,1.59
1791083422584,114897,-0.8333,-0.2922,0.4507,-0.09,-2.18,1.53
1791083422594,114929,-0.8311,-0.2959,0.4419,-1.71,-3.27,1.08
1791083422604,114943,-0.8193,-0.3008,0.4368,-3.16,-3.94,0.81
1791083422614,114963,-0.8501,-0.2974,0.437,-4.24,0.12,-0.03
1791083422624,114970,-0.8494,-0.3064,0.4426,-5.74,-4.14,0.11
1791083422634,114994,-0.8203,-0.2898,0.4373,-2.87,-4.73,0.67
1791083422644,115001,-0.8225,-0.3113,0.4482,-1.76,-3.16,0.72
1791083422654,115016,-0.8269,-0.3103,0.4399,-0.14,-0.06,0.12
1791083422664,115041,-0.8291,-0.2947,0.4546,-0.02,-0.02,-0.38
1791083422674,115053,-0.8281,-0.2952,0.4604,-0.03,-0.81,-0.38
1791083422684,115059,-0.8325,-0.2966,0.4604,0.14,-1.5,-0.41
1791083422694,115051,-0.8315,-0.2922,0.4626,0.7,-1.18,-0.34
1791083422704,115012,-0.8286,-0.2922,0.4612,0.02,-1.54,-0.46
1791083422714,114935,-0.8423,-0.2949,0.4453,-0.89,-1.21,-0.64
1791083422724,114845,-0.8452,-0.3049,0.4207,-1.8,-2.53,-0.31
1791083422734,114738,-0.8403,-0.3086,0.4368,-3.36,-5.94,0.44
1791083422744,114611,-0.8342,-0.3179,0.4465,-4.37,-7.59,0.92
1791083422754,114489,-0.8298,-0.3149,0.4583,-3.08,-6.78,1.34
1791083422764,114367,-0.8247,-0.3132,0.4534,-0.52,-4.49,1.62
1791083422774,114246,-0.8281,-0.3057,0.4644,2.44,-1.24,2.05
1791083422784,114159,-0.8347,-0.3062,0.4775,5.1,2.85,1.86
1791083422794,114086,-0.8372,-0.2939,0.45,6.79,5.44,1.65
1791083422804,114064,-0.845,-0.2942,0.436,6.93,4.38,2.15
1791083422814,114062,-0.844,-0.2905,0.4424,4.78,0.96,2.32
1791083422824,114081,-0.8423,-0.2905,0.4456,0.95,-1.59,1.53
1791083422834,114104,-0.8396,-0.2964,0.4292,-3.21,-2.73,0.34
1791083422844,114125,-0.8308,-0.2981,0.4402,-6.32,-4.05,-0.26
1791083422854,114150,-0.8298,-0.2957,0.4438,-8.08,-4.23,-0.81
1791083422864,114156,-0.8347,-0.3088,0.4661,-8.79,-4.23,-0.87
1791083422874,114159,-0.8337,-0.3052,0.4844,-5.39,-1.21,-0.81
1791083422884,114166,-0.8357,-0.3123,0.4854,-2.21,0.69,-0.29
1791083422894,114169,-0.8391,-0.3147,0.4873,-0.47,1.97,0.34
1791083422904,114175,-0.8413,-0.3149,0.48,1.44,2.98,0.79
1791083422914,114185,-0.8362,-0.3081,0.4651,2.35,2.87,1.51
1791083422924,114211,-0.8337,-0.3083,0.4451,2.09,1.59,2.14
1791083422934,114228,-0.8298,-0.3047,0.4351,0.9,-0.72,2.95
1791083422944,114250,-0.8269,-0.303,0.428,-0.96,-3.21,3.27
1791083422954,114261,-0.823,-0.3064,0.429,-2.61,-4.37,3.15
1791083422964,114261,-0.8157,-0.3047,0.4341,-2.84,-4.49,3.16
1791083422974,114260,-0.8232,-0.3074,0.4438,-1.59,-2.66,2.27
1791083422984,114257,-0.834,-0.3005,0.4575,-0.12,-0.64,1.79
1791083422994,114260,-0.8228,-0.2957,0.4573,1.68,1.33,1.19
1791083423004,114246,-0.8237,-0.2915,0.4456,3.01,2.84,1.27
1791083423014,114240,-0.8345,-0.2856,0.4561,3.83,2.72,1.66
1791083423024,114225,-0.8286,-0.2874,0.4592,4.66,1.07,2.52
1791083423034,114224,-0.8281,-0.2834,0.4514,4.72,-0.05,2.87
1791083423044,114220,-0.8369,-0.2871,0.4451,2.2,0.5,1.94
1791083423054,114228,-0.8362,-0.2871,0.4419,-1.18,0.02,0.92
1791083423064,114243,-0.8315,-0.2908,0.4309,-2.89,-0.58,0.38
1791083423074,114252,-0.8411,-0.2893,0.4543,-4.24,-0.56,-0.4
1791083423084,114274,-0.8455,-0.2927,0.4385,-5.24,-1.86,-0.98
1791083423094,114310,-0.8459,-0.2915,0.4536,-5.07,-4.09,-0.63
1791083423104,114336,-0.8369,-0.302,0.479,-4.93,-5.1,-0.11
1791083423114,114353,-0.8242,-0.2947,0.4839,-3.95,-1.51,-1.25
1791083423124,114380,-0.8416,-0.3088,0.4783,-0.02,3.16,-0.89
1791083423134,114393,-0.8396,-0.2935,0.469,3.07,4.92,-0.66
1791083423144,114420,-0.8379,-0.2881,0.4824,3.36,3.59,-0.05
1791083423154,114444,-0.8474,-0.29,0.4592,3.1,1.51,0.76
1791083423164,114473,-0.8347,-0.2917,0.4412,1.54,-1.63,1.11
1791083423174,114496,-0.8301,-0.3015,0.4187,-1.56,-3.74,1.37
1791083423184,114514,-0.825,-0.303,0.4075,-4.31,-5.28,1.15
1791083423194,114527,-0.8196,-0.3079,0.4028,-5.45,-6.03,0.85
1791083423204,114536,-0.821,-0.3127,0.4104,-4.82,-6.12,0.98
1791083423214,114555,-0.8208,-0.3057,0.4373,-3.01,-5.44,0.78
1791083423224,114562,-0.8196,-0.2969,0.4595,-1.11,-3.25,0.4
1791083423234,114584,-0.833,-0.291,0.4546,1.04,1.98,-0.87
1791083423244,114606,-0.844,-0.2944,0.4421,1.77,3.68,-1.47
1791083423254,114630,-0.8408,-0.2927,0.4504,0.75,0.5,-1.04
1791083423264,114661,-0.8401,-0.2998,0.4536,-2.41,-2.31,-0.96
1791083423274,114683,-0.8362,-0.3057,0.4558,-5.15,-4.34,-0.85
1791083423284,114706,-0.8218,-0.3135,0.4709,-6.29,-5.25,-0.61
1791083423294,114713,-0.8279,-0.3127,0.4644,-6.82,-3.6,-0.76
1791083423304,114720,-0.8362,-0.3093,0.4661,-6.44,-3.71,-0.21
1791083423314,114711,-0.8259,-0.312,0.469,-3.77,-4.47,0.98
1791083423324,114709,-0.8215,-0.3098,0.4631,0.69,-2.76,1.92
1791083423334,114698,-0.8564,-0.3105,0.4551,7.11,0.53,2.2
1791083423344,114705,-0.824,-0.313,0.4438,9.42,-1.36,3.16
1791083423354,114712,-0.8015,-0.3049,0.4229,9.77,1.34,2.98
1791083423364,114728,-0.8232,-0.2976,0.4053,7.05,3.48,2.2
1791083423374,114772,-0.8325,-0.2896,0.4255,2.52,2.6,1.11
1791083423384,114814,-0.8403,-0.2852,0.4277,-1.1,-1.07,1.15
1791083423394,114843,-0.8264,-0.2983,0.4626,-5.66,-6.46,1.08
1791083423404,114856,-0.8232,-0.3052,0.4717,-7.59,-4.72,-0.06
1791083423414,114863,-0.8347,-0.3035,0.4504,-6.92,-2.32,-0.61
1791083423424,114874,-0.832,-0.3,0.4775,-6.35,-2.34,-0.17
1791083423434,114886,-0.8416,-0.2991,0.467,-4.95,-2.64,0.38
1791083423444,114905,-0.8438,-0.3049,0.4473,-3.28,-3.74,0.79
1791083423454,114927,-0.8176,-0.3005,0.4343,-1.34,-3.95,0.96
1791083423464,114951,-0.8223,-0.3052,0.4236,0.31,-2.05,0.89
1791083423474,114979,-0.8203,-0.3096,0.418,0.56,-2.02,0.85
1791083423484,115010,-0.8108,-0.3022,0.4363,-0.58,-2.7,0.84
1791083423494,115024,-0.8223,-0.2966,0.459,-2.09,-2.7,0.44
1791083423504,115026,-0.8293,-0.3032,0.4539,-4.21,-2.43,-0.23
1791083423514,114987,-0.8311,-0.303,0.4717,-4.09,-1.25,-0.84
1791083423524,114915,-0.8462,-0.3,0.4775,-3.28,0.05,-1.22
1791083423534,114812,-0.8508,-0.3022,0.4812,-3.01,-0.78,-0.95
1791083423544,114690,-0.845,-0.3015,0.4875,-2.43,-2.98,0.24
1791083423554,114555,-0.8335,-0.2988,0.4866,-1.34,-3.27,0.96
1791083423564,114421,-0.8315,-0.2979,0.478,1.1,-1.59,1.18
1791083423574,114292,-0.8286,-0.3005,0.4534,3.91,0.82,1.28
1791083423584,114189,-0.8352,-0.3013,0.4417,5.11,1.98,1.04
1791083423594,114107,-0.8264,-0.2988,0.4282,5.44,1.98,0.87
1791083423604,114055,-0.8228,-0.2988,0.4077,5.71,0.78,1.11
1791083423614,114037,-0.834,-0.2878,0.4504,5.89,-1.42,1.54
1791083423624,114031,-0.845,-0.3044,0.4309,5.28,-4.24,2.08
1791083423634,114032,-0.8076,-0.303,0.4485,4.14,-6.06,2.08
1791083423644,114043,-0.8264,-0.2986,0.4609,1.68,-3.34,0.49
1791083423654,114081,-0.8269,-0.2917,0.4607,-1.1,-3.02,-0.37
1791083423664,114105,-0.8252,-0.2893,0.4792,-2.66,-4.34,-0.27
1791083423674,114139,-0.8228,-0.2886,0.4924,-3.47,-3.34,-0.61
1791083423684,114164,-0.8389,-0.3035,0.4746,-2.47,-1.48,-0.41
1791083423694,114188,-0.8271,-0.3022,0.4541,-0.12,-1.97,0.12
1791083423704,114210,-0.8225,-0.3071,0.4519,1.71,-1.39,0.55
1791083423714,114229,-0.8157,-0.3044,0.4365,3.24,-0.27,0.9
1791083423724,114262,-0.8245,-0.3079,0.4231,3.48,-0.34,1.05
1791083423734,114291,-0.8313,-0.3188,0.4417,1.44,-1.24,1.19
1791083423744,114322,-0.8247,-0.3169,0.4512,-0.37,-1.77,1.45
1791083423754,114345,-0.8274,-0.3152,0.4565,1.59,-1.62,2.29
1791083423764,114362,-0.8276,-0.3081,0.4565,4.26,-2.11,3.28
1791083423774,114387,-0.8284,-0.3083,0.4666,4.47,-1.51,3.15
1791083423784,114405,-0.8291,-0.3022,0.468,4.23,-0.61,2.75
1791083423794,114416,-0.832,-0.2861,0.4744,3.63,-0.9,2.47
1791083423804,114419,-0.8372,-0.2859,0.4822,2.49,-2.47,2.5
1791083423814,114410,-0.8347,-0.2861,0.4917,1.1,-3.79,2.38
1791083423824,114387,-0.8357,-0.2905,0.4753,-0.78,-3.44,1.94
1791083423834,114369,-0.8071,-0.2925,0.4487,-1.36,-2.27,0.43
1791083423844,114353,-0.8193,-0.3,0.429,-1.07,-2.17,1.22
1791083423854,114332,-0.8101,-0.2964,0.4236,-1.44,-2.56,1.21
1791083423864,114319,-0.8079,-0.2849,0.4324,-3.3,-3.86,1.07
1791083423874,114318,-0.8176,-0.2839,0.4348,-4.44,-5.6,0.93
1791083423884,114302,-0.8276,-0.2842,0.4658,-5.53,-7.48,0.69
1791083423894,114298,-0.8247,-0.2849,0.4766,-6.46,-9.6,0.69
1791083423904,114301,-0.8201,-0.2876,0.5034,-7.36,-9.74,0.69
1791083423914,114305,-0.8247,-0.2927,0.5034,-6.69,-8.02,0.41
1791083423924,114326,-0.8196,-0.2976,0.5022,-4.64,-5.83,-0.18
1791083423934,114351,-0.8235,-0.3025,0.4607,-3.08,-4.14,-0.06
1791083423944,114382,-0.8213,-0.304,0.4673,-2.99,-5.63,0.12
1791083423954,114401,-0.8223,-0.3081,0.448,-2.37,-9.19,0.99
1791083423964,114443,-0.8125,-0.2881,0.4714,-2.24,-10.29,0.96
1791083423974,114488,-0.8425,-0.2959,0.4534,-3.45,-9.47,0.14
1791083423984,114522,-0.8342,-0.3008,0.4885,-4.31,-12.66,0.76
1791083423994,114546,-0.8411,-0.3054,0.4673,-4.2,-13.48,0.52
1791083424004,114575,-0.8203,-0.3188,0.4753,-4.58,-10.52,0.58
1791083424014,114598,-0.8267,-0.3167,0.478,-3.51,-6.44,0.08
1791083424024,114628,-0.8208,-0.3096,0.4648,-1.37,-4.79,0.84
1791083424034,114659,-0.8337,-0.3101,0.4753,-1.66,-4.64,1.08
1791083424044,114686,-0.8364,-0.3003,0.4834,-3.73,-6.02,1.07
1791083424054,114721,-0.8291,-0.2998,0.4792,-5.08,-7.36,1.18
1791083424064,114752,-0.8323,-0.2983,0.4863,-5.79,-7.85,1.34
1791083424074,114775,-0.832,-0.2991,0.48,-5.47,-9.24,2.14
1791083424084,114797,-0.8274,-0.3025,0.4854,-5.53,-9.56,2.58
1791083424094,114820,-0.8123,-0.3142,0.4841,-4.92,-7.95,2.93
1791083424104,114836,-0.824,-0.2988,0.4788,-4.0,-5.16,3.16
1791083424114,114855,-0.8311,-0.3103,0.4788,-4.02,-5.3,2.87
1791083424124,114872,-0.8347,-0.2998,0.4734,-4.5,-6.89,3.22
1791083424134,114881,-0.8213,-0.2988,0.4949,-4.72,-9.73,4.18
1791083424144,114891,-0.8152,-0.293,0.4995,-3.56,-9.19,4.38
1791083424154,114888,-0.8157,-0.2952,0.4907,-2.08,-6.03,3.6
1791083424164,114890,-0.8171,-0.2976,0.4812,-1.37,-3.6,2.89
1791083424174,114886,-0.8167,-0.2947,0.4878,-0.5,-5.04,3.77
1791083424184,114884,-0.8074,-0.2859,0.5081,-0.08,-5.02,3.82
1791083424194,114897,-0.8108,-0.291,0.4829,-1.01,-2.98,2.63
1791083424204,114908,-0.8208,-0.2886,0.4746,-3.25,-3.63,2.15
1791083424214,114933,-0.8062,-0.2886,0.4783,-5.82,-5.86,2.23
1791083424224,114950,-0.8103,-0.2915,0.481,-7.33,-6.69,2.03
1791083424234,114972,-0.8015,-0.2959,0.467,-6.52,-6.61,2.21
1791083424244,114984,-0.8035,-0.3032,0.4685,-5.88,-5.5,1.66
1791083424254,115008,-0.8086,-0.2935,0.4734,-3.79,-5.16,1.69
1791083424264,115028,-0.8123,-0.2917,0.4807,-2.23,-5.77,1.5
1791083424274,115041,-0.8137,-0.2937,0.4834,-1.04,-5.8,1.59
1791083424284,115069,-0.8118,-0.2971,0.4795,-0.14,-6.98,2.05
1791083424294,115091,-0.7964,-0.2908,0.4878,0.26,-8.17,2.78
1791083424304,115111,-0.7979,-0.293,0.4976,0.24,-8.02,2.82
1791083424314,115119,-0.8018,-0.2817,0.4971,-0.67,-8.26,2.5
1791083424324,115119,-0.8035,-0.3008,0.5332,-3.73,-8.69,2.21
1791083424334,115084,-0.7866,-0.2798,0.5449,-2.46,-5.16,0.87
1791083424344,115012,-0.8071,-0.3037,0.5098,-0.12,-2.12,-0.2
1791083424354,114912,-0.7742,-0.2859,0.5308,-0.08,0.34,-1.16
1791083424364,114805,-0.8042,-0.3062,0.4934,1.15,5.19,-2.27
1791083424374,114689,-0.8064,-0.2971,0.4805,0.47,4.95,-1.97
1791083424384,114566,-0.7771,-0.3022,0.6194,0.87,3.02,-1.36
1791083424394,114447,-0.8123,-0.3013,0.4512,2.99,-1.16,0.75
1791083424404,114326,-0.8115,-0.3,0.4714,2.82,-6.06,2.67
1791083424414,114219,-0.8186,-0.3005,0.4907,2.0,-7.51,2.52
1791083424424,114123,-0.811,-0.3008,0.4932,0.17,-8.06,2.46
1791083424434,114042,-0.8069,-0.3008,0.5068,-1.31,-9.47,2.76
1791083424444,113992,-0.8025,-0.2964,0.5364,-1.86,-10.79,3.16
1791083424454,113964,-0.7917,-0.3005,0.5376,-0.96,-6.64,1.91
1791083424464,113936,-0.8047,-0.3032,0.5093,-0.73,0.32,0.31
1791083424474,113922,-0.8066,-0.3115,0.4849,-0.76,2.61,-0.75
1791083424484,113926,-0.8013,-0.3032,0.491,-1.3,1.07,-0.32
1791083424494,113929,-0.8079,-0.3081,0.4807,-2.11,-1.05,0.21
1791083424504,113930,-0.8037,-0.3032,0.4861,-1.73,-2.24,0.79
1791083424514,113926,-0.7954,-0.3005,0.478,-0.18,-1.6,1.13
1791083424524,113921,-0.7969,-0.3037,0.4836,1.71,-1.11,1.92
1791083424534,113928,-0.8018,-0.2986,0.4812,3.22,-0.52,2.61
1791083424544,113938,-0.8237,-0.3113,0.5005,2.53,-1.37,2.93
1791083424554,113956,-0.821,-0.2922,0.5042,0.03,-2.24,2.85
1791083424564,113981,-0.8113,-0.3018,0.5251,-2.0,-5.4,2.72
1791083424574,114012,-0.8032,-0.3018,0.5327,-3.89,-1.6,0.99
1791083424584,114033,-0.8049,-0.3081,0.5146,-3.51,1.37,0.09
1791083424594,114032,-0.8027,-0.3003,0.5015,-1.44,2.08,-0.05
1791083424604,114027,-0.8071,-0.3032,0.509,-0.27,0.72,0.53
1791083424614,114019,-0.8042,-0.3022,0.5024,1.01,-0.35,1.18
1791083424624,114003,-0.8047,-0.2961,0.4885,1.82,-1.15,1.3
1791083424634,113973,-0.812,-0.3,0.4707,1.98,-2.37,1.76
1791083424644,113952,-0.8035,-0.2942,0.468,2.72,-4.08,2.18
1791083424654,113922,-0.8052,-0.2935,0.4712,2.26,-5.62,2.72
1791083424664,113888,-0.802,-0.2937,0.4954,1.79,-4.76,2.32
1791083424674,113865,-0.7981,-0.2939,0.5129,0.87,-1.91,1.62
1791083424684,113837,-0.8054,-0.2971,0.5117,1.08,1.19,0.4
1791083424694,113831,-0.8132,-0.2981,0.5066,1.01,1.71,0.05
1791083424704,113817,-0.8176,-0.2952,0.5066,-0.27,1.16,-0.09
1791083424714,113805,-0.8096,-0.3018,0.5049,-2.08,-0.58,-0.03
1791083424724,113810,-0.8042,-0.2976,0.5059,-3.05,-2.06,0.7
1791083424734,113809,-0.8064,-0.2979,0.5205,-3.69,-2.37,0.75
1791083424744,113809,-0.8069,-0.3008,0.5149,-4.37,-2.79,0.61
1791083424754,113816,-0.8044,-0.3003,0.5085,-2.87,-1.69,0.6
1791083424764,113815,-0.7947,-0.2927,0.5125,-0.26,1.89,0.38
1791083424774,113821,-0.8057,-0.2954,0.4971,2.72,5.37,0.32
1791083424784,113842,-0.8086,-0.2905,0.4805,4.75,6.2,0.44
1791083424794,113870,-0.8074,-0.2878,0.4795,4.85,4.38,1.02
1791083424804,113908,-0.8079,-0.2886,0.4854,3.27,1.15,1.71
1791083424814,113960,-0.8152,-0.2913,0.4995,0.64,-0.08,1.42
1791083424824,113994,-0.8135,-0.2932,0.4937,-1.92,0.41,0.55
1791083424834,114019,-0.8018,-0.2893,0.5024,-2.61,0.4,0.23
1791083424844,114051,-0.8074,-0.2913,0.5181,-1.69,-0.09,0.34
1791083424854,114079,-0.8071,-0.2952,0.5054,-0.98,0.05,0.23
1791083424864,114108,-0.8018,-0.2935,0.4939,0.27,-0.14,0.11
1791083424874,114130,-0.8081,-0.2927,0.4968,0.95,-1.33,0.4
1791083424884,114153,-0.8015,-0.2913,0.4888,-0.41,-1.82,0.03
1791083424894,114174,-0.8037,-0.2971,0.4924,-1.53,-1.57,-0.26
1791083424904,114192,-0.8147,-0.3003,0.4998,-2.21,-1.3,-0.44
1791083424914,114200,-0.8079,-0.2983,0.4968,-2.69,-1.15,-0.11
1791083424924,114219,-0.8064,-0.2983,0.4968,-2.06,0.14,-0.09
1791083424934,114224,-0.8081,-0.3022,0.5051,-0.5,1.53,0.21
1791083424944,114242,-0.8096,-0.2983,0.5039,1.51,2.02,0.26
1791083424954,114254,-0.8101,-0.2935,0.5051,2.6,3.22,0.26
1791083424964,114274,-0.8137,-0.2834,0.5271,3.16,3.19,0.43
1791083424974,114273,-0.8083,-0.2874,0.5042,3.3,2.93,0.53
1791083424984,114279,-0.7935,-0.2939,0.4976,2.41,3.3,0.02
1791083424994,114291,-0.8164,-0.2915,0.4885,0.29,5.05,-0.79
1791083425004,114306,-0.8247,-0.2927,0.4717,-2.69,2.53,-0.67
1791083425014,114335,-0.8071,-0.3027,0.4827,-4.7,-1.91,-0.53
1791083425024,114357,-0.7979,-0.2952,0.4873,-5.11,-1.39,-0.53
1791083425034,114379,-0.7917,-0.2947,0.4839,-4.52,1.45,-0.93
1791083425044,114408,-0.7976,-0.3003,0.4634,-3.65,3.48,-1.27
1791083425054,114439,-0.8013,-0.2983,0.4656,-2.49,2.9,-0.93
1791083425064,114475,-0.793,-0.2957,0.4888,0.05,1.19,-0.6
1791083425074,114490,-0.7756,-0.2883,0.4946,2.53,1.18,-0.27
1791083425084,114495,-0.8132,-0.2864,0.4958,1.65,3.25,-0.37
1791083425094,114475,-0.814,-0.2917,0.4966,0.75,1.85,-1.18
1791083425104,114419,-0.8203,-0.2961,0.5022,-1.28,-1.4,0.06
1791083425114,114317,-0.8147,-0.3069,0.5156,-3.21,-2.93,-0.24
1791083425124,114193,-0.8086,-0.3022,0.511,-3.94,-1.57,-0.11
1791083425134,114050,-0.8208,-0.3047,0.5022,-3.63,-0.06,-0.27
1791083425144,113900,-0.813,-0.3044,0.5095,-3.71,-0.17,-0.08
1791083425154,113759,-0.814,-0.3098,0.499,-2.08,0.92,0.06
1791083425164,113631,-0.8174,-0.3098,0.4932,0.18,1.83,0.64
1791083425174,113507,-0.8105,-0.3059,0.4929,2.35,1.45,1.07
1791083425184,113419,-0.8169,-0.2988,0.4927,2.69,-0.24,1.56
1791083425194,113349,-0.8142,-0.3025,0.4888,1.02,-1.42,1.53
1791083425204,113316,-0.8098,-0.2944,0.4839,0.23,-0.38,0.92
1791083425214,113303,-0.8069,-0.3057,0.4817,-0.81,0.44,0.81
1791083425224,113312,-0.8081,-0.304,0.5049,-1.85,2.37,0.81
1791083425234,113341,-0.8069,-0.3059,0.5059,-0.82,8.41,0.18
1791083425244,113401,-0.8223,-0.3008,0.489,1.37,9.24,0.21
1791083425254,113487,-0.8179,-0.2952,0.4854,2.96,6.18,1.13
1791083425264,113586,-0.813,-0.2939,0.48,2.02,3.42,1.5
1791083425274,113669,-0.8042,-0.2952,0.478,1.18,0.17,1.71
1791083425284,113758,-0.8101,-0.2915,0.4719,-0.84,-2.47,1.73
1791083425294,113827,-0.7979,-0.2961,0.4856,-2.32,-3.98,1.42
1791083425304,113887,-0.8044,-0.3054,0.4602,-2.34,-3.85,1.15
1791083425314,113936,-0.8083,-0.3037,0.4824,-2.61,-5.33,1.33
1791083425324,113992,-0.8101,-0.302,0.4849,-1.31,-5.4,1.48
1791083425334,114035,-0.8079,-0.3027,0.501,-0.56,-3.07,1.34
1791083425344,114065,-0.8035,-0.3008,0.5002,0.61,0.61,0.44
1791083425354,114087,-0.8076,-0.2966,0.4983,2.53,4.32,-0.17
1791083425364,114120,-0.8188,-0.2915,0.4897,3.5,5.22,-0.14
1791083425374,114135,-0.8164,-0.29,0.4895,3.45,3.11,0.66
1791083425384,114151,-0.8196,-0.2839,0.4849,2.03,2.15,0.79
1791083425394,114165,-0.8193,-0.2932,0.4871,-0.06,1.68,0.41
1791083425404,114183,-0.8184,-0.2905,0.4893,-1.95,0.08,0.61
1791083425414,114193,-0.823,-0.2983,0.4893,-3.13,-1.79,1.05
1791083425424,114205,-0.825,-0.2976,0.5007,-3.53,-2.34,0.75
1791083425434,114215,-0.8213,-0.3025,0.4919,-4.21,-2.24,0.52
1791083425444,114220,-0.8179,-0.3059,0.4844,-3.79,-2.02,0.4
1791083425454,114229,-0.8108,-0.304,0.4902,-0.9,-0.55,0.67
1791083425464,114243,-0.8208,-0.3018,0.479,2.23,2.08,-0.14
1791083425474,114254,-0.8167,-0.2979,0.4888,3.28,3.98,-0.53
1791083425484,114278,-0.8215,-0.2903,0.4929,2.35,4.93,-0.58
1791083425494,114304,-0.8191,-0.2913,0.4712,1.53,4.11,-0.24
1791083425504,114345,-0.8208,-0.2908,0.4724,0.75,1.24,0.72
1791083425514,114377,-0.8213,-0.2883,0.4763,-1.18,-2.4,1.56
1791083425524,114423,-0.8215,-0.2925,0.479,-3.15,-2.43,1.21
1791083425534,114464,-0.8157,-0.2922,0.4866,-3.89,-2.5,1.07
1791083425544,114512,-0.8101,-0.2961,0.488,-2.69,-1.48,0.69
1791083425554,114536,-0.8118,-0.303,0.4771,-1.22,-0.21,0.66
1791083425564,114585,-0.8083,-0.3047,0.4695,1.1,0.63,0.52
1791083425574,114639,-0.8086,-0.2991,0.4668,2.12,1.65,0.32
1791083425584,114684,-0.8096,-0.3032,0.4609,1.4,1.5,0.31
1791083425594,114720,-0.8135,-0.2974,0.4893,0.18,-0.14,0.64
1791083425604,114765,-0.8162,-0.2959,0.4971,-1.18,-1.15,0.84
1791083425614,114799,-0.8076,-0.2964,0.4966,-0.72,-1.89,1.16
1791083425624,114830,-0.8088,-0.2993,0.5098,0.05,-1.39,1.04
1791083425634,114863,-0.8127,-0.3013,0.4893,0.98,0.81,0.55
1791083425644,114900,-0.8196,-0.3027,0.4736,1.28,2.15,0.05
1791083425654,114939,-0.822,-0.2986,0.458,1.18,0.84,0.41
1791083425664,114969,-0.8147,-0.2891,0.4783,1.37,-0.73,0.99
1791083425674,114989,-0.8101,-0.2869,0.4788,1.39,-1.44,1.34
1791083425684,115019,-0.8064,-0.2908,0.4822,1.65,-2.02,1.25
1791083425694,115040,-0.8103,-0.2888,0.4827,0.82,-1.79,0.99
1791083425704,115049,-0.8081,-0.2935,0.4849,-0.31,-0.95,0.41
1791083425714,115058,-0.8135,-0.2964,0.4771,-1.47,0.58,-0.29
1791083425724,115089,-0.8159,-0.3035,0.4597,-2.93,0.29,-0.82
1791083425734,115120,-0.8218,-0.3008,0.4641,-4.31,-2.69,-0.08
1791083425744,115152,-0.8228,-0.3088,0.5,-5.1,-5.54,0.31
1791083425754,115172,-0.8132,-0.3132,0.4988,-4.35,-4.67,0.17
1791083425764,115195,-0.8181,-0.3101,0.5071,-0.92,-2.7,0.44
1791083425774,115205,-0.8191,-0.304,0.5142,2.5,-1.59,1.22
1791083425784,115190,-0.8157,-0.2964,0.5066,5.01,0.55,1.08
1791083425794,115153,-0.8108,-0.2861,0.5007,5.92,4.53,0.58
1791083425804,115075,-0.8281,-0.2866,0.4685,5.01,5.5,0.37
1791083425814,114978,-0.8242,-0.2849,0.4661,2.7,2.41,1.08
1791083425824,114867,-0.8237,-0.2881,0.4802,-1.68,-1.28,1.5
1791083425834,114746,-0.8196,-0.2949,0.4888,-5.16,-2.15,1.07
1791083425844,114625,-0.8218,-0.3003,0.4912,-6.4,-1.95,0.64
1791083425854,114523,-0.8218,-0.3008,0.4966,-5.01,-1.85,1.07
1791083425864,114443,-0.812,-0.3076,0.4927,-2.05,-0.75,1.18
1791083425874,114378,-0.8105,-0.3103,0.4883,0.72,1.36,1.04
1791083425884,114350,-0.8054,-0.301,0.4648,3.4,3.85,0.43
1791083425894,114353,-0.8154,-0.3005,0.4397,4.44,4.43,0.49
1791083425904,114364,-0.8086,-0.2993,0.4375,4.17,1.62,0.99
1791083425914,114388,-0.8132,-0.2817,0.469,1.89,-1.91,1.42
1791083425924,114422,-0.8059,-0.2935,0.4817,-0.89,-3.21,0.9
1791083425934,114464,-0.8113,-0.2896,0.4885,-3.18,-2.43,0.17
1791083425944,114504,-0.8096,-0.29,0.5012,-5.19,-1.57,-0.38
1791083425954,114537,-0.8132,-0.2856,0.5071,-5.83,-0.84,-0.87
1791083425964,114581,-0.8152,-0.2974,0.5103,-5.01,-0.2,-1.05
1791083425974,114621,-0.8147,-0.2983,0.4922,-3.6,0.46,-0.4
1791083425984,114665,-0.8179,-0.3047,0.4778,-1.94,0.29,0.31
1791083425994,114697,-0.8196,-0.3022,0.4744,-0.31,-0.17,1.11
1791083426004,114738,-0.8132,-0.3081,0.4666,1.48,-1.34,1.85
1791083426014,114784,-0.811,-0.3088,0.4707,3.53,-2.38,2.47
1791083426024,114831,-0.8157,-0.2971,0.4683,5.05,-1.5,2.52
1791083426034,114852,-0.8145,-0.2954,0.469,4.4,-0.95,1.94
1791083426044,114890,-0.823,-0.2864,0.4734,2.67,-1.5,1.63
1791083426054,114914,-0.8247,-0.291,0.478,0.4,-2.14,0.79
1791083426064,114928,-0.8269,-0.2834,0.4932,-1.01,-0.93,-0.15
1791083426074,114934,-0.8313,-0.2866,0.4958,-2.4,0.44,-0.66
1791083426084,114932,-0.8293,-0.2876,0.4915,-3.65,-0.46,-0.85
1791083426094,114921,-0.8223,-0.2888,0.4895,-3.5,-1.57,-0.7
1791083426104,114899,-0.8164,-0.2981,0.4846,-3.92,-2.21,-0.6
1791083426114,114877,-0.8179,-0.2983,0.4783,-3.48,-2.14,-0.46
1791083426124,114849,-0.8191,-0.2949,0.478,-2.89,-2.09,-0.49
1791083426134,114828,-0.8181,-0.3069,0.4639,-3.4,-2.55,-0.18
1791083426144,114814,-0.821,-0.3037,0.47,-3.76,-3.18,-0.12
1791083426154,114807,-0.8088,-0.3052,0.4634,-3.8,-3.8,0.23
1791083426164,114802,-0.8059,-0.3081,0.4797,-2.78,-2.93,0.6
1791083426174,114808,-0.8081,-0.303,0.4951,-0.6,-0.37,0.23
1791083426184,114817,-0.814,-0.2998,0.4963,1.62,2.63,-0.15
1791083426194,114821,-0.8152,-0.2935,0.4973,3.48,3.34,0.34
1791083426204,114832,-0.8137,-0.2915,0.4922,4.35,2.32,1.05
1791083426214,114858,-0.8164,-0.2876,0.4802,3.82,0.53,1.13
1791083426224,114886,-0.8271,-0.293,0.47,0.15,-1.47,1.13
1791083426234,114912,-0.8147,-0.2893,0.4695,-3.25,-2.85,0.56
1791083426244,114943,-0.8096,-0.292,0.4773,-4.84,-4.43,0.56
1791083426254,114968,-0.8135,-0.2939,0.4851,-4.81,-5.18,0.81
1791083426264,114996,-0.8113,-0.2976,0.4924,-3.66,-4.24,1.01
1791083426274,115001,-0.8103,-0.3076,0.4861,-1.05,-1.13,0.58
1791083426284,115020,-0.8169,-0.3,0.4775,1.45,1.19,0.6
1791083426294,115043,-0.814,-0.3025,0.4763,2.09,2.15,0.7
1791083426304,115073,-0.8174,-0.3054,0.467,1.98,1.62,0.72
1791083426314,115105,-0.8201,-0.301,0.4758,1.63,0.05,1.08
1791083426324,115133,-0.8098,-0.3013,0.4724,0.5,-0.64,0.78
1791083426334,115159,-0.8159,-0.2966,0.4709,-0.7,-1.33,0.64
1791083426344,115185,-0.8157,-0.2986,0.4817,-2.6,-2.37,0.44
1791083426354,115191,-0.8105,-0.2922,0.5125,-3.02,-2.11,0.56
1791083426364,115214,-0.8079,-0.2905,0.5071,-1.62,0.78,-0.15
1791083426374,115229,-0.8252,-0.2903,0.4919,-0.09,1.98,-0.17
1791083426384,115240,-0.8252,-0.2988,0.4841,0.52,0.11,0.21
1791083426394,115265,-0.814,-0.2998,0.4749,0.32,-1.6,1.04
1791083426404,115290,-0.8057,-0.3042,0.4622,-0.08,-1.77,1.21
1791083426414,115315,-0.8062,-0.3062,0.4475,-0.93,-2.38,0.9
1791083426424,115336,-0.8069,-0.3074,0.4656,-2.38,-3.54,0.78
1791083426434,115348,-0.8057,-0.3086,0.4768,-3.62,-3.5,0.32
1791083426444,115364,-0.8081,-0.3054,0.4951,-2.98,-3.05,0.14
1791083426454,115361,-0.8171,-0.3047,0.4907,-1.59,-3.47,0.29
1791083426464,115339,-0.8145,-0.3022,0.4883,-0.7,-3.1,0.23
1791083426474,115288,-0.8201,-0.3005,0.4875,-0.24,-1.59,0.23
1791083426484,115197,-0.8276,-0.3005,0.4832,-0.37,-0.61,0.21
1791083426494,115079,-0.8279,-0.3037,0.4858,-0.89,-2.05,0.78
1791083426504,114947,-0.822,-0.302,0.5027,-1.21,-3.01,1.28
1791083426514,114803,-0.822,-0.3008,0.5066,-0.96,-2.89,1.57
1791083426524,114658,-0.8184,-0.3,0.5081,-0.63,-2.14,1.68
1791083426534,114542,-0.8203,-0.3066,0.4985,-1.62,-0.82,1.13
1791083426544,114432,-0.8188,-0.3025,0.4854,-2.32,-0.12,0.87
1791083426554,114358,-0.8149,-0.2976,0.4832,-1.59,-0.32,1.08
1791083426564,114291,-0.8203,-0.3083,0.4626,-0.98,0.29,1.01
1791083426574,114264,-0.813,-0.3044,0.4595,-1.22,-1.1,1.05
1791083426584,114248,-0.8069,-0.3037,0.4673,-1.4,-0.95,0.81
1791083426594,114240,-0.8057,-0.304,0.4863,-1.56,0.05,0.58
1791083426604,114260,-0.8108,-0.3013,0.4976,-0.99,1.42,0.4
1791083426614,114280,-0.8159,-0.2979,0.49,-0.81,0.05,0.5
1791083426624,114319,-0.8135,-0.2976,0.4885,-0.61,-1.88,0.78
1791083426634,114358,-0.8088,-0.2935,0.4861,-0.92,-2.34,0.69
1791083426644,114391,-0.813,-0.2969,0.48,-1.74,-1.88,0.55
1791083426654,114430,-0.8127,-0.3032,0.4729,-2.81,-3.18,0.84
1791083426664,114460,-0.812,-0.3037,0.488,-3.39,-3.89,1.3
1791083426674,114489,-0.8008,-0.3079,0.5015,-3.3,-2.81,1.08
1791083426684,114520,-0.8108,-0.3062,0.5042,-1.82,0.61,0.61
1791083426694,114551,-0.8191,-0.3035,0.4839,-0.02,2.31,0.23
1791083426704,114586,-0.8154,-0.3035,0.4658,1.85,0.7,0.87
1791083426714,114610,-0.8154,-0.3,0.4709,3.04,-1.24,1.66
1791083426724,114636,-0.8184,-0.2971,0.4641,2.49,-1.79,1.19
1791083426734,114638,-0.8125,-0.3042,0.4663,0.58,-1.3,0.56
1791083426744,114648,-0.8184,-0.302,0.4697,-0.84,-1.56,0.38
1791083426754,114640,-0.8093,-0.2957,0.4929,-1.54,-1.36,0.18
1791083426764,114623,-0.8145,-0.2932,0.4963,-1.6,0.6,-0.47
1791083426774,114595,-0.821,-0.2913,0.4941,-1.63,2.7,-0.9
1791083426784,114571,-0.8298,-0.2993,0.4744,-2.35,1.98,-0.56
1791083426794,114533,-0.8235,-0.3042,0.4878,-2.67,-0.49,0.38
1791083426804,114505,-0.8127,-0.3064,0.4871,-2.11,-1.02,0.98
1791083426814,114477,-0.8159,-0.3044,0.4763,-0.87,-1.07,1.4
1791083426824,114451,-0.8181,-0.304,0.4866,0.02,-1.86,1.71
1791083426834,114437,-0.8196,-0.3069,0.4856,-0.23,-2.58,1.83
1791083426844,114433,-0.8054,-0.3079,0.4768,-0.03,-1.36,1.3
1791083426854,114441,-0.8074,-0.3049,0.4753,0.5,0.03,0.96
1791083426864,114447,-0.8149,-0.2996,0.4839,0.15,0.53,0.73
1791083426874,114458,-0.8193,-0.2964,0.4883,-0.37,0.46,0.37
1791083426884,114476,-0.8113,-0.2949,0.4761,-0.7,2.55,-0.58
1791083426894,114485,-0.8118,-0.2966,0.4749,-0.84,2.96,-0.47
1791083426904,114519,-0.8135,-0.2888,0.4727,-0.49,0.9,0.03
1791083426914,114540,-0.8132,-0.2959,0.4771,-0.05,-1.83,0.89
1791083426924,114580,-0.8113,-0.2976,0.4839,-0.12,-2.99,0.96
1791083426934,114598,-0.8118,-0.3037,0.4722,-0.84,-2.09,0.63
1791083426944,114632,-0.8123,-0.3032,0.4729,-2.24,-2.0,0.32
1791083426954,114664,-0.8147,-0.3101,0.4661,-3.97,-3.22,0.08
1791083426964,114685,-0.8171,-0.3101,0.4805,-4.63,-4.44,0.14
1791083426974,114704,-0.8108,-0.3123,0.4893,-4.64,-4.46,0.6
1791083426984,114712,-0.8049,-0.3088,0.4832,-3.05,-1.65,0.21
1791083426994,114715,-0.8169,-0.3052,0.49,-1.02,0.37,0.24
1791083427004,114726,-0.8171,-0.302,0.4805,0.69,0.34,0.47
1791083427014,114738,-0.813,-0.3037,0.4858,2.43,0.92,0.58
1791083427024,114755,-0.8171,-0.302,0.4751,3.5,1.65,0.9
1791083427034,114763,-0.822,-0.304,0.4573,3.42,0.76,1.37
1791083427044,114778,-0.8169,-0.2986,0.4819,2.63,-1.51,1.89
1791083427054,114792,-0.8057,-0.2996,0.4912,1.31,-0.82,1.6
1791083427064,114798,-0.8127,-0.2939,0.4829,0.14,0.02,1.11
1791083427074,114811,-0.8188,-0.2942,0.4792,-0.67,-1.63,1.45
1791083427084,114831,-0.8142,-0.2969,0.4871,-0.87,-3.28,1.69
1791083427094,114843,-0.8079,-0.2969,0.4785,-0.73,-3.92,1.39
1791083427104,114858,-0.8042,-0.302,0.4707,-1.25,-2.11,1.1
1791083427114,114872,-0.8147,-0.302,0.4624,-2.17,-0.43,0.24
1791083427124,114890,-0.8179,-0.303,0.4824,-4.12,-2.08,0.0
1791083427134,114906,-0.8105,-0.2993,0.4927,-4.46,-3.71,-0.12
1791083427144,114923,-0.8108,-0.3079,0.4885,-3.59,-3.47,0.0
1791083427154,114909,-0.812,-0.3062,0.4963,-1.95,-2.08,-0.11
1791083427164,114881,-0.8191,-0.3027,0.4976,-0.21,-0.66,-0.14
1791083427174,114818,-0.8235,-0.3076,0.4763,0.44,-1.24,0.67
1791083427184,114713,-0.821,-0.3032,0.4851,1.04,-2.78,1.8
1791083427194,114577,-0.8154,-0.3042,0.4878,1.42,-1.37,1.77
1791083427204,114426,-0.8274,-0.3022,0.49,0.56,-0.49,1.6
1791083427214,114268,-0.8276,-0.304,0.4912,-1.05,-0.95,1.19
1791083427224,114125,-0.8267,-0.3059,0.4919,-2.47,-1.77,0.93
1791083427234,113977,-0.823,-0.3064,0.4873,-3.19,-1.31,0.52
1791083427244,113864,-0.8162,-0.304,0.4888,-3.05,-0.98,0.35
1791083427254,113753,-0.8193,-0.3015,0.488,-2.21,-0.35,0.52
1791083427264,113672,-0.8186,-0.3008,0.49,-1.42,-1.36,0.98
1791083427274,113616,-0.8103,-0.2993,0.4856,-0.72,-1.74,1.37
1791083427284,113596,-0.8059,-0.3003,0.4844,-0.41,-1.54,1.59
1791083427294,113596,-0.8081,-0.2961,0.4839,-0.46,1.37,0.98
1791083427304,113608,-0.8123,-0.301,0.4688,-1.02,2.61,0.56
1791083427314,113628,-0.8098,-0.292,0.4897,-1.73,0.73,0.75
1791083427324,113666,-0.8057,-0.2983,0.4836,-2.0,0.47,0.73
1791083427334,113694,-0.8125,-0.3008,0.4707,-1.59,-0.5,1.04
1791083427344,113725,-0.8098,-0.3018,0.4883,-2.38,-2.32,1.07
1791083427354,113750,-0.8066,-0.3008,0.4863,-3.36,-1.01,0.5
1791083427364,113782,-0.814,-0.304,0.4819,-2.64,-1.18,0.35
1791083427374,113815,-0.8088,-0.3074,0.4832,-1.53,-2.61,0.66
1791083427384,113853,-0.8086,-0.302,0.4944,-1.4,-3.08,0.73
1791083427394,113885,-0.8059,-0.3025,0.4885,-0.64,-2.4,0.53
1791083427404,113925,-0.8047,-0.3018,0.4929,1.85,-0.69,0.26
1791083427414,113961,-0.8135,-0.3,0.479,2.89,2.44,-0.12
1791083427424,113982,-0.8264,-0.3,0.4639,2.24,1.63,0.09
1791083427434,113994,-0.8191,-0.3015,0.4714,0.12,-1.74,0.79
1791083427444,113998,-0.8186,-0.3013,0.4841,-2.09,-3.62,1.1
1791083427454,113991,-0.8164,-0.2993,0.4902,-2.85,-1.66,0.6
1791083427464,113978,-0.8198,-0.3059,0.4919,-1.85,-0.72,0.26
1791083427474,113946,-0.8264,-0.3018,0.4897,-0.93,-1.66,0.89
1791083427484,113917,-0.8149,-0.3018,0.4949,-0.41,-2.0,1.02
1791083427494,113894,-0.8132,-0.3032,0.4856,-0.52,-1.59,0.61
1791083427504,113858,-0.8181,-0.3074,0.4714,-0.75,0.35,0.08
1791083427514,113838,-0.8167,-0.3108,0.4607,-0.73,-0.23,0.35
1791083427524,113813,-0.8162,-0.3059,0.4731,-1.07,-2.24,0.66
1791083427534,113806,-0.8125,-0.2991,0.4888,-2.11,-3.66,1.07
1791083427544,113810,-0.8091,-0.3035,0.4868,-2.78,-2.66,0.79
1791083427554,113836,-0.814,-0.3047,0.4822,-2.63,-1.47,0.72
1791083427564,113862,-0.8154,-0.3054,0.4731,-1.39,-0.92,1.13
1791083427574,113896,-0.8149,-0.3025,0.4851,0.18,-0.7,1.51
1791083427584,113925,-0.8171,-0.3101,0.4783,2.17,-0.98,2.09
1791083427594,113968,-0.8164,-0.3032,0.4802,3.48,-1.63,2.7
1791083427604,114018,-0.8159,-0.2954,0.4971,2.18,-3.77,2.92
1791083427614,114078,-0.8169,-0.2954,0.5005,-1.73,-4.14,2.09
1791083427624,114139,-0.8154,-0.3035,0.4832,-4.69,-3.88,1.07
1791083427634,114195,-0.8005,-0.3025,0.4985,-6.08,-4.32,0.85
1791083427644,114255,-0.8174,-0.3074,0.4932,-6.09,-2.67,-0.14
1791083427654,114312,-0.8184,-0.3074,0.4883,-6.55,-3.62,-0.31
1791083427664,114364,-0.8147,-0.3049,0.4812,-5.94,-4.9,0.31
1791083427674,114403,-0.8115,-0.3052,0.4802,-6.52,-5.98,0.75
1791083427684,114447,-0.8296,-0.3047,0.4937,-6.87,-7.68,1.25
1791083427694,114481,-0.8228,-0.3091,0.4717,-6.37,-10.43,1.54
1791083427704,114502,-0.8206,-0.313,0.5244,-5.6,-6.66,1.07
1791083427714,114518,-0.8328,-0.3289,0.4851,-7.4,-2.72,-0.23
1791083427724,114539,-0.7871,-0.3054,0.4761,-4.4,-1.82,-0.55
1791083427734,114564,-0.8105,-0.2986,0.4727,-0.41,1.73,-0.27
1791083427744,114584,-0.8101,-0.3096,0.4402,0.69,-1.18,0.64
1791083427754,114592,-0.7971,-0.3135,0.4631,-1.62,-4.67,1.08
1791083427764,114606,-0.8027,-0.303,0.4507,-4.2,-4.63,0.53
1791083427774,114617,-0.7922,-0.3005,0.4812,-6.02,-4.87,0.03
1791083427784,114625,-0.802,-0.303,0.4788,-6.81,-4.08,-0.31
1791083427794,114628,-0.8152,-0.3083,0.478,-7.19,-6.05,-0.31
1791083427804,114630,-0.804,-0.3049,0.4812,-5.08,-8.24,0.46
1791083427814,114634,-0.7944,-0.301,0.5078,-2.84,-9.54,0.79
1791083427824,114637,-0.7991,-0.3123,0.4902,-3.24,-10.14,0.56
1791083427834,114650,-0.8208,-0.3123,0.4839,-3.73,-9.42,0.31
1791083427844,114670,-0.8062,-0.3171,0.5083,-4.89,-10.89,0.27
1791083427854,114678,-0.7886,-0.3088,0.4932,-2.66,-7.8,-0.46
1791083427864,114683,-0.8157,-0.2947,0.5146,-4.46,-7.27,-1.11
1791083427874,114651,-0.8083,-0.3208,0.5271,-5.69,-9.4,-0.11
1791083427884,114619,-0.8169,-0.3059,0.551,-3.89,-3.97,-0.2
1791083427894,114539,-0.8081,-0.3225,0.5664,-3.08,2.82,0.63
1791083427904,114453,-0.8113,-0.3142,0.5759,-2.29,7.07,-1.08
1791083427914,114369,-0.8303,-0.3394,0.5452,0.47,10.84,-1.71
1791083427924,114291,-0.8486,-0.3206,0.5166,3.21,9.3,-0.96
1791083427934,114229,-0.8352,-0.3083,0.5098,3.42,2.63,1.37
1791083427944,114169,-0.8235,-0.3103,0.5103,3.97,-2.6,3.1
1791083427954,114107,-0.8301,-0.3057,0.5107,3.68,-4.05,3.53
1791083427964,114064,-0.8137,-0.3064,0.4902,0.53,-1.21,2.2
1791083427974,114040,-0.8135,-0.3027,0.4758,-3.18,2.05,0.78
1791083427984,114035,-0.8103,-0.3169,0.46,-6.81,0.79,-0.55
1791083427994,114053,-0.7927,-0.324,0.4932,-9.25,-0.55,-0.73
1791083428004,114080,-0.7842,-0.3311,0.5659,-8.93,4.23,-0.6
1791083428014,114108,-0.7961,-0.3203,0.613,0.29,14.37,-1.6
1791083428024,114163,-0.8284,-0.3191,0.5896,9.91,22.29,-2.08
1791083428034,114236,-0.8418,-0.3191,0.551,18.52,22.47,-0.43
1791083428044,114322,-0.8423,-0.3225,0.5286,26.17,16.2,2.44
1791083428054,114414,-0.8169,-0.3242,0.5254,32.03,12.79,4.85
1791083428064,114510,-0.7969,-0.3015,0.5322,35.66,18.02,5.02
1791083428074,114624,-0.783,-0.2959,0.4858,36.81,28.44,2.29
1791083428084,114753,-0.8,-0.2817,0.4331,33.19,32.6,0.6
1791083428094,114916,-0.8225,-0.2847,0.4167,26.66,29.66,-0.15
1791083428104,115075,-0.8066,-0.2849,0.3965,17.53,23.36,-0.37
1791083428114,115205,-0.8113,-0.2964,0.4568,6.6,16.29,-0.18
1791083428124,115327,-0.8254,-0.272,0.5002,1.44,16.92,-0.6
1791083428134,115413,-0.8403,-0.2722,0.5061,0.84,17.5,-1.47
1791083428144,115498,-0.8489,-0.2788,0.4727,1.91,14.98,-0.58
1791083428154,115560,-0.8518,-0.2744,0.4219,5.02,10.17,0.61
1791083428164,115598,-0.8398,-0.2993,0.4419,7.89,7.62,1.68
1791083428174,115611,-0.8118,-0.2954,0.4353,9.68,11.44,1.59
1791083428184,115613,-0.8152,-0.2876,0.4258,10.09,14.15,0.35
1791083428194,115635,-0.8213,-0.2781,0.4404,8.12,16.2,-0.87
1791083428204,115657,-0.8252,-0.2805,0.4182,5.18,17.19,-2.46
1791083428214,115678,-0.8164,-0.2878,0.4255,3.63,17.92,-3.89
1791083428224,115698,-0.834,-0.2866,0.4116,4.0,17.83,-3.91
1791083428234,115733,-0.8521,-0.2937,0.4055,1.63,12.7,-2.79
1791083428244,115758,-0.8555,-0.3064,0.4016,-2.03,8.29,-1.28
1791083428254,115783,-0.8633,-0.3167,0.375,-5.27,4.5,-0.14
1791083428264,115804,-0.8496,-0.3091,0.3804,-7.89,-0.66,1.47
1791083428274,115822,-0.8408,-0.3113,0.3857,-7.37,-4.11,2.98
1791083428284,115841,-0.8401,-0.2996,0.4353,-4.82,-6.15,4.03
1791083428294,115845,-0.8291,-0.2961,0.4822,-1.89,-2.49,4.41
1791083428304,115859,-0.8252,-0.2927,0.5146,2.31,9.24,1.82
1791083428314,115859,-0.8381,-0.2922,0.4751,6.87,21.94,-1.16
1791083428324,115892,-0.8572,-0.283,0.4375,11.01,24.12,-1.53
1791083428334,115943,-0.8635,-0.2817,0.4197,11.71,20.05,-0.69
1791083428344,116001,-0.8633,-0.2739,0.4307,11.33,15.33,0.38
1791083428354,116050,-0.856,-0.2769,0.4219,12.03,12.53,0.92
1791083428364,116097,-0.8569,-0.2808,0.4082,13.07,8.98,2.15
1791083428374,116135,-0.8494,-0.28,0.4001,10.61,4.75,2.34
1791083428384,116177,-0.8589,-0.2842,0.3909,5.19,0.31,2.02
1791083428394,116224,-0.8647,-0.291,0.3843,-1.89,-4.81,0.95
1791083428404,116244,-0.8574,-0.2871,0.4023,-9.68,-8.26,-0.21
1791083428414,116255,-0.8464,-0.2891,0.428,-16.98,-9.79,-1.54
1791083428424,116253,-0.8428,-0.2913,0.4468,-20.69,-7.8,-2.61
1791083428434,116256,-0.8398,-0.3027,0.4446,-19.5,-1.33,-4.53
1791083428444,116260,-0.8462,-0.3059,0.446,-14.41,4.26,-5.16
1791083428454,116283,-0.8618,-0.3013,0.4458,-7.56,5.89,-4.35
1791083428464,116300,-0.8894,-0.3049,0.447,-3.05,3.5,-2.35
1791083428474,116317,-0.8728,-0.3069,0.4487,-0.75,0.78,-0.93
1791083428484,116320,-0.8687,-0.3096,0.4282,0.17,-1.97,0.5
1791083428494,116326,-0.8591,-0.2957,0.4248,-1.24,-2.5,0.58
1791083428504,116334,-0.8486,-0.3037,0.4104,-4.06,-2.03,0.2
1791083428514,116332,-0.8398,-0.304,0.4092,-6.06,0.61,-0.12
1791083428524,116339,-0.8491,-0.2998,0.4126,-8.02,2.5,-2.12
1791083428534,116355,-0.876,-0.3198,0.3914,-10.29,4.63,-4.11
1791083428544,116377,-0.8813,-0.3057,0.373,-11.91,-0.12,-2.82
1791083428554,116394,-0.8806,-0.3237,0.3433,-11.94,-5.92,-2.21
1791083428564,116422,-0.8711,-0.3298,0.3323,-9.39,-8.76,0.09
1791083428574,116441,-0.8784,-0.2849,0.4021,-8.06,-11.63,2.67
1791083428584,116474,-0.8496,-0.2715,0.4568,-9.1,-12.72,2.27
1791083428594,116492,-0.8469,-0.281,0.4485,-9.39,-9.59,1.22
1791083428604,116507,-0.8562,-0.2886,0.4641,-11.18,-8.75,0.46
1791083428614,116499,-0.8499,-0.3103,0.45,-13.65,-8.12,-0.02
1791083428624,116476,-0.8452,-0.3125,0.4243,-13.25,-8.84,0.69
1791083428634,116426,-0.8352,-0.3047,0.426,-11.76,-12.64,1.42
1791083428644,116327,-0.8149,-0.3027,0.4419,-13.37,-15.3,2.23
1791083428654,116193,-0.7886,-0.2986,0.4783,-16.2,-9.1,0.38
1791083428664,116030,-0.8049,-0.3083,0.4548,-17.1,4.85,-3.65
1791083428674,115857,-0.8054,-0.3035,0.4092,-15.79,9.53,-4.66
1791083428684,115693,-0.7905,-0.3044,0.4231,-14.34,9.89,-4.15
1791083428694,115564,-0.8198,-0.3027,0.4233,-10.81,10.85,-4.08
1791083428704,115462,-0.8245,-0.3015,0.4072,-5.25,8.2,-3.22
1791083428714,115372,-0.8018,-0.2903,0.4065,-1.01,2.73,-1.21
1791083428724,115296,-0.7974,-0.3032,0.3948,0.27,0.84,-0.23
1791083428734,115230,-0.8076,-0.2969,0.3765,0.69,0.11,0.02
1791083428744,115183,-0.7993,-0.2979,0.3496,1.63,-1.02,0.96
1791083428754,115146,-0.8035,-0.2812,0.345,1.24,-4.56,1.57
1791083428764,115128,-0.8013,-0.2773,0.4036,-1.8,-7.47,1.53
1791083428774,115110,-0.8171,-0.2979,0.4075,-5.08,-5.71,-0.05
1791083428784,115083,-0.8086,-0.3027,0.4104,-6.26,-5.54,-0.81
1791083428794,115050,-0.8044,-0.3096,0.4275,-5.48,-4.79,-1.95
1791083428804,115025,-0.8184,-0.3118,0.4502,-4.09,-2.03,-1.68
1791083428814,115013,-0.8147,-0.3259,0.467,-0.29,0.78,-1.56
1791083428824,115009,-0.8225,-0.3269,0.4502,5.13,3.92,-0.93
1791083428834,115028,-0.8235,-0.3237,0.4316,10.31,6.55,-0.58
1791083428844,115061,-0.8257,-0.3201,0.3931,10.99,7.27,-0.76
1791083428854,115111,-0.8196,-0.3257,0.385,8.78,5.98,-0.98
1791083428864,115156,-0.8213,-0.3181,0.3723,7.36,4.24,-0.72
1791083428874,115204,-0.832,-0.3054,0.3762,4.72,1.1,-0.72
1791083428884,115236,-0.8369,-0.3052,0.3865,0.69,-2.75,-0.76
1791083428894,115264,-0.8401,-0.3088,0.3911,-4.53,-6.92,-0.52
1791083428904,115273,-0.8306,-0.3145,0.4146,-8.89,-8.6,-0.61
1791083428914,115261,-0.8433,-0.3245,0.4465,-9.62,-4.41,-1.33
1791083428924,115250,-0.8438,-0.3262,0.4656,-5.48,0.38,-1.63
1791083428934,115243,-0.8489,-0.3379,0.4678,0.11,3.45,-1.16
1791083428944,115226,-0.8525,-0.3206,0.4468,3.92,4.66,-1.01
1791083428954,115219,-0.8604,-0.325,0.4199,4.67,2.5,-1.05
1791083428964,115206,-0.8438,-0.3188,0.4097,2.89,-2.0,-0.76
1791083428974,115184,-0.8826,-0.3289,0.375,-0.37,-8.75,-0.9
1791083428984,115165,-0.9639,-0.2234,0.0486,-1.33,-13.24,-1.57
1791083428994,115095,-0.8562,-0.342,0.427,-4.09,-13.07,-0.6
1791083429004,115022,-0.8518,-0.3125,0.4016,-0.46,-9.16,1.05
1791083429014,114963,-0.8628,-0.3269,0.4031,0.69,-5.19,0.02
1791083429024,114926,-0.8489,-0.3313,0.408,2.73,-3.63,0.9
1791083429034,114889,-0.8442,-0.3103,0.4282,4.2,-5.27,1.85
1791083429044,114876,-0.6414,0.0117,0.6133,1.4,-6.6,1.5
1791083429054,114855,-0.9246,-0.394,0.3809,2.41,1.74,2.32
1791083429064,114839,-0.8552,-0.3376,0.4116,3.15,0.0,0.0
1791083429074,114866,-0.8425,-0.2871,0.4636,1.48,-1.51,0.24
1791083429084,114887,-0.8411,-0.3081,0.4521,0.75,-6.09,1.07
1791083429094,114911,-0.8447,-0.3323,0.4485,6.15,-6.84,1.76
1791083429104,114919,-0.8538,-0.3474,0.4282,9.82,-3.86,2.72
1791083429114,114914,-0.8135,-0.333,0.4226,12.32,1.82,1.85
1791083429124,114929,-0.8389,-0.3274,0.3628,13.44,7.3,0.4
1791083429134,114940,-0.8208,-0.3142,0.3721,8.58,5.56,-1.05
1791083429144,114976,-0.8162,-0.3164,0.3901,5.5,2.31,-1.21
1791083429154,115010,-0.8276,-0.3018,0.4229,4.26,-0.85,-1.08
1791083429164,115042,-0.8323,-0.3032,0.4465,0.49,-5.21,-0.75
1791083429174,115059,-0.834,-0.3169,0.4395,-1.02,-6.29,-0.18
1791083429184,115075,-0.8193,-0.3137,0.4319,0.92,-7.39,1.11
1791083429194,115078,-0.8335,-0.3149,0.3997,2.78,-9.92,2.53
1791083429204,115085,-0.8169,-0.3037,0.4209,3.51,-13.33,3.36
1791083429214,115074,-0.8044,-0.3035,0.4351,2.47,-13.92,3.91
1791083429224,115057,-0.7991,-0.3118,0.4438,2.32,-11.33,3.42
1791083429234,115046,-0.8047,-0.2964,0.4504,3.63,-7.85,2.17
1791083429244,115047,-0.8223,-0.3093,0.4434,2.41,-1.89,0.09
1791083429254,115051,-0.822,-0.3062,0.405,1.08,1.11,-0.72
1791083429264,115067,-0.8079,-0.3079,0.3943,0.56,-2.26,-0.32
1791083429274,115090,-0.7969,-0.2954,0.4033,1.42,-5.71,0.14
1791083429284,115119,-0.78,-0.2942,0.3914,0.6,-4.73,-0.96
1791083429294,115148,-0.7783,-0.2986,0.4326,-1.89,-0.66,-1.79
1791083429304,115181,-0.7847,-0.3047,0.4651,-2.87,2.75,-2.64
1791083429314,115217,-0.8081,-0.3,0.4563,-1.07,8.53,-4.29
1791083429324,115268,-0.8079,-0.2991,0.4255,0.41,7.83,-4.84
1791083429334,115324,-0.8225,-0.314,0.4004,2.5,1.34,-4.32
1791083429344,115350,-0.8113,-0.3223,0.4087,4.98,-4.14,-2.52
1791083429354,115328,-0.7832,-0.3264,0.418,7.01,-4.72,-0.78
1791083429364,115267,-0.7786,-0.3201,0.4216,10.92,-0.12,-0.26
1791083429374,115187,-0.7908,-0.3174,0.3877,16.15,4.15,0.43
1791083429384,115119,-0.7822,-0.3115,0.3765,18.7,2.95,2.18
1791083429394,115040,-0.7598,-0.2871,0.4065,19.24,3.91,3.21
1791083429404,114964,-0.7649,-0.3105,0.3792,16.98,4.21,4.44
1791083429414,114903,-0.7505,-0.3035,0.3965,13.79,3.83,5.24
1791083429424,114882,-0.7598,-0.3257,0.4761,13.91,9.79,5.37
1791083429434,114896,-0.7927,-0.3027,0.4949,18.75,18.58,3.69
1791083429444,114950,-0.8269,-0.2952,0.4719,22.47,20.29,3.39
1791083429454,115019,-0.8315,-0.3027,0.4216,25.27,11.74,6.02
1791083429464,115098,-0.8318,-0.2981,0.3933,26.5,-2.31,9.83
1791083429474,115171,-0.822,-0.311,0.3489,26.17,-13.07,12.21
1791083429484,115239,-0.8267,-0.2825,0.3481,24.21,-23.94,14.03
1791083429494,115316,-0.8235,-0.2776,0.3667,17.47,-34.6,15.07
1791083429504,115379,-0.8074,-0.2698,0.3887,9.59,-41.27,14.63
1791083429514,115421,-0.8174,-0.2698,0.4031,3.04,-45.53,14.29
1791083429524,115423,-0.8259,-0.2673,0.4426,-2.98,-47.13,13.4
1791083429534,115416,-0.8328,-0.2666,0.4907,-7.24,-48.15,12.21
1791083429544,115387,-0.8367,-0.2593,0.5249,-9.1,-48.37,11.08
1791083429554,115351,-0.8364,-0.2651,0.5293,-10.4,-48.24,9.92
1791083429564,115317,-0.8469,-0.2595,0.5227,-10.89,-49.94,9.34
1791083429574,115269,-0.8252,-0.2598,0.5217,-11.36,-51.19,8.35
1791083429584,115186,-0.7942,-0.2598,0.5359,-12.58,-47.85,6.95
1791083429594,115081,-0.8059,-0.2852,0.5193,-13.19,-41.07,4.7
1791083429604,114945,-0.8071,-0.2852,0.5312,-15.4,-37.69,3.6
1791083429614,114813,-0.812,-0.3015,0.5618,-15.85,-35.1,2.87
1791083429624,114684,-0.8181,-0.2993,0.6055,-14.55,-33.22,2.82
1791083429634,114572,-0.8391,-0.2925,0.6262,-15.45,-31.94,1.8
1791083429644,114476,-0.8613,-0.3123,0.6204,-19.51,-31.86,-0.41
1791083429654,114372,-0.8398,-0.313,0.6726,-22.32,-30.82,0.24
1791083429664,114255,-0.8376,-0.303,0.6919,-21.34,-23.48,-0.26
1791083429674,114162,-0.8467,-0.312,0.6587,-15.95,-13.95,-0.17
1791083429684,114071,-0.8635,-0.3081,0.6208,-9.19,-11.8,1.51
1791083429694,114011,-0.8528,-0.3003,0.6443,-1.77,-13.92,4.55
1791083429704,113958,-0.8403,-0.3022,0.6487,4.06,-10.5,6.61
1791083429714,113909,-0.8464,-0.2976,0.6243,4.96,-3.4,6.29
1791083429724,113881,-0.8403,-0.3027,0.604,3.44,0.5,5.27
1791083429734,113871,-0.844,-0.2986,0.5896,1.11,2.12,3.91
1791083429744,113843,-0.8306,-0.2944,0.5767,-4.06,3.65,2.73
1791083429754,113817,-0.8074,-0.2896,0.5679,-6.78,4.9,1.28
1791083429764,113795,-0.8081,-0.2871,0.5398,-6.47,4.85,0.78
1791083429774,113782,-0.8303,-0.2808,0.5144,-6.2,2.34,0.93
1791083429784,113767,-0.8274,-0.2837,0.5115,-8.05,-2.38,1.04
1791083429794,113739,-0.813,-0.2849,0.5388,-10.09,-2.7,0.9
1791083429804,113692,-0.7976,-0.2842,0.5408,-11.18,1.21,0.26
1791083429814,113652,-0.7925,-0.2878,0.5505,-10.56,6.2,-0.55
1791083429824,113635,-0.8059,-0.2773,0.5381,-8.05,10.06,-1.28
1791083429834,113642,-0.8059,-0.2837,0.5269,-5.08,9.73,-1.59
1791083429844,113653,-0.8015,-0.2874,0.5513,-1.22,7.44,-0.75
1791083429854,113671,-0.7812,-0.2769,0.5955,2.18,6.67,-0.61
1791083429864,113683,-0.7996,-0.2654,0.5508,3.04,7.33,-1.1
1791083429874,113687,-0.792,-0.2668,0.5327,1.05,6.61,-1.53
1791083429884,113681,-0.7842,-0.2668,0.5305,-0.93,7.5,-2.18
1791083429894,113668,-0.7876,-0.2808,0.5068,-1.08,8.32,-2.34
1791083429904,113639,-0.78,-0.2747,0.5239,-0.44,5.77,-1.19
1791083429914,113618,-0.7903,-0.2781,0.5425,0.99,5.42,-0.52
1791083429924,113620,-0.7903,-0.281,0.5464,2.31,5.62,-0.23
1791083429934,113630,-0.7866,-0.2859,0.541,4.11,6.73,-0.03
1791083429944,113647,-0.7817,-0.2874,0.5103,5.76,7.68,0.09
1791083429954,113665,-0.7732,-0.2825,0.5029,6.92,6.82,0.17
1791083429964,113676,-0.7727,-0.2803,0.4932,7.44,5.83,1.05
1791083429974,113692,-0.7566,-0.2805,0.5083,7.53,4.84,1.62
1791083429984,113685,-0.76,-0.2788,0.5222,7.79,7.89,1.48
1791083429994,113665,-0.7732,-0.2661,0.5247,7.21,11.8,0.79
1791083430004,113643,-0.7917,-0.2754,0.5059,5.97,11.16,0.61
1791083430014,113592,-0.7859,-0.2693,0.5139,5.13,5.31,2.05
1791083430024,113492,-0.7866,-0.2749,0.5229,5.47,3.11,2.03
1791083430034,113356,-0.781,-0.28,0.5042,5.34,2.11,2.37
1791083430044,113216,-0.772,-0.28,0.4897,5.15,2.31,2.34
1791083430054,113076,-0.7715,-0.2793,0.4832,4.76,1.98,2.67
1791083430064,112940,-0.7832,-0.2766,0.5002,2.85,-1.37,3.21
1791083430074,112826,-0.7798,-0.2729,0.531,-0.93,-3.63,3.3
1791083430084,112728,-0.7878,-0.2798,0.5452,-2.87,-2.66,2.38
1791083430094,112651,-0.7742,-0.2766,0.5232,-0.98,-1.92,1.94
1791083430104,112601,-0.7834,-0.2905,0.5205,1.53,-1.27,2.12
1791083430114,112576,-0.7837,-0.2827,0.5142,3.54,0.76,1.76
1791083430124,112578,-0.7822,-0.2827,0.501,4.79,2.43,1.39
1791083430134,112597,-0.7949,-0.2805,0.5037,4.2,2.56,1.45
1791083430144,112646,-0.8044,-0.2834,0.4961,2.69,-0.09,1.76
1791083430154,112707,-0.7908,-0.2915,0.519,1.6,-3.65,2.72
1791083430164,112766,-0.7971,-0.2837,0.5569,1.48,-4.53,2.78
1791083430174,112837,-0.7932,-0.2866,0.552,1.39,-3.19,1.74
1791083430184,112915,-0.7988,-0.2896,0.5295,2.08,-1.94,0.7
1791083430194,112984,-0.7966,-0.2839,0.5215,2.55,-1.8,0.23
1791083430204,113055,-0.7947,-0.283,0.5183,2.21,-2.7,0.32
1791083430214,113117,-0.7964,-0.2769,0.5249,1.3,-3.02,0.24
1791083430224,113171,-0.8079,-0.2771,0.522,-0.61,-3.39,0.03
1791083430234,113209,-0.8027,-0.2742,0.522,-2.5,-2.96,-0.11
1791083430244,113233,-0.8022,-0.2771,0.5354,-4.06,-2.31,-0.24
1791083430254,113234,-0.7983,-0.2754,0.5205,-4.43,-0.66,-0.4
1791083430264,113231,-0.7998,-0.29,0.501,-3.4,-0.89,0.31
1791083430274,113207,-0.8083,-0.2688,0.5308,-1.24,-1.47,1.15
1791083430284,113188,-0.7898,-0.2729,0.5364,0.7,-2.35,1.6
1791083430294,113160,-0.8008,-0.2712,0.5564,4.29,0.58,1.57
1791083430304,113119,-0.8086,-0.2717,0.543,7.11,2.21,1.28
1791083430314,113091,-0.8069,-0.2681,0.541,6.31,0.37,1.8
1791083430324,113062,-0.8066,-0.2766,0.5481,3.98,-1.3,2.09
1791083430334,113039,-0.8093,-0.2729,0.5381,0.99,-1.89,1.3
1791083430344,113033,-0.8071,-0.2761,0.5347,-2.29,-2.5,0.81
1791083430354,113012,-0.8047,-0.2778,0.5371,-5.42,-2.4,0.47
1791083430364,113003,-0.8066,-0.2761,0.5425,-7.66,-2.24,0.03
1791083430374,113011,-0.7952,-0.2751,0.5571,-7.4,-1.48,0.14
1791083430384,113031,-0.7949,-0.2761,0.5552,-4.12,2.24,0.05
1791083430394,113059,-0.793,-0.2788,0.512,1.1,6.03,-0.05
1791083430404,113094,-0.7983,-0.2693,0.5176,5.74,4.99,1.19
1791083430414,113139,-0.7939,-0.2649,0.5203,8.64,5.68,1.71
1791083430424,113200,-0.7959,-0.2578,0.5027,9.19,7.47,1.47
1791083430434,113262,-0.8086,-0.2617,0.5051,6.76,4.85,1.53
1791083430444,113337,-0.8035,-0.2656,0.5208,2.4,1.08,2.08
1791083430454,113398,-0.8013,-0.2705,0.5293,-1.59,-1.4,1.83
1791083430464,113448,-0.8062,-0.2722,0.5356,-3.89,-2.99,1.56
1791083430474,113486,-0.7964,-0.2729,0.5522,-4.93,-3.36,1.51
1791083430484,113524,-0.7866,-0.2688,0.5554,-3.92,0.49,0.79
1791083430494,113557,-0.7913,-0.2676,0.5369,-1.01,4.44,-0.27
1791083430504,113604,-0.7969,-0.2651,0.5144,1.39,5.3,-0.37
1791083430514,113652,-0.8022,-0.2703,0.5039,2.92,3.24,0.17
1791083430524,113711,-0.8022,-0.2664,0.5066,2.92,2.23,0.32
1791083430534,113766,-0.8,-0.2695,0.491,2.12,1.53,0.2
1791083430544,113807,-0.8145,-0.2791,0.4746,0.31,-1.02,0.56
1791083430554,113838,-0.8066,-0.2815,0.467,-2.18,-3.44,1.13
1791083430564,113854,-0.8025,-0.2839,0.5125,-4.5,-4.35,1.19
1791083430574,113856,-0.7944,-0.2812,0.5312,-4.76,-2.76,0.99
1791083430584,113860,-0.7937,-0.2727,0.5454,-3.4,-1.83,0.63
