t,ppg,ax,ay,az,gx,gy,gz
1760000000000,50103,0.0272,-0.9797,0.0962,-0.0218,0.0006,-0.0204
1760000000020,50250,0.0210,-0.9793,0.1027,-0.0183,0.0001,-0.0013
1760000000040,50602,0.0227,-0.9784,0.1119,0.0041,-0.0029,0.0247
1760000000060,51080,0.0245,-0.9818,0.1011,0.0205,0.0139,0.0026
1760000000080,51297,0.0222,-0.9796,0.1036,0.0043,0.0218,-0.0010
1760000000100,51689,0.0233,-0.9854,0.0980,-0.0100,0.0396,-0.0019
1760000000120,51978,0.0231,-0.9814,0.0922,0.0193,-0.0081,0.0144
1760000000140,52034,0.0178,-0.9737,0.1072,-0.0260,-0.0267,-0.0009
1760000000160,52363,0.0208,-0.9785,0.0951,0.0117,0.0223,-0.0087
1760000000180,52307,0.0162,-0.9762,0.0913,-0.0018,-0.0198,-0.0026
1760000000200,52467,0.0201,-0.9725,0.1021,0.0267,-0.0028,-0.0096
1760000000220,52528,0.0058,-0.9802,0.1008,-0.0247,0.0093,-0.0112
1760000000240,52259,0.0189,-0.9849,0.0974,-0.0030,0.0250,0.0021
1760000000260,52359,0.0219,-0.9891,0.1062,-0.0215,0.0088,-0.0225
1760000000280,52137,0.0180,-0.9705,0.1035,-0.0121,-0.0057,-0.0230
1760000000300,52020,0.0171,-0.9764,0.0932,-0.0067,-0.0168,-0.0144
1760000000320,51843,0.0206,-0.9771,0.1059,0.0230,-0.0274,0.0107
1760000000340,51371,0.0197,-0.9704,0.0990,-0.0074,0.0034,0.0004
1760000000360,51207,0.0162,-0.9746,0.1044,-0.0042,0.0063,0.0132
1760000000380,50954,0.0220,-0.9765,0.0987,-0.0214,-0.0099,0.0204
1760000000400,50598,0.0207,-0.9828,0.1015,0.0333,0.0271,-0.0137
1760000000420,50153,0.0127,-0.9857,0.1009,0.0005,0.0193,0.0254
1760000000440,49858,0.0266,-0.9827,0.0944,0.0100,0.0536,0.0071
1760000000460,49337,0.0212,-0.9729,0.0948,0.0161,-0.0122,0.0255
1760000000480,49143,0.0215,-0.9700,0.0980,-0.0137,0.0371,-0.0175
1760000000500,48926,0.0198,-0.9852,0.1000,0.0026,0.0040,-0.0038
1760000000520,48534,0.0084,-0.9828,0.0987,0.0364,-0.0399,-0.0068
1760000000540,48086,0.0167,-0.9768,0.1021,0.0288,-0.0120,0.0054
1760000000560,48041,0.0245,-0.9817,0.1056,-0.0185,0.0361,0.0031
1760000000580,47752,0.0214,-0.9758,0.1087,-0.0028,-0.0074,0.0117
1760000000600,47553,0.0115,-0.9758,0.0981,0.0225,-0.0205,-0.0579
1760000000620,47558,0.0208,-0.9720,0.1026,0.0062,0.0117,-0.0073
1760000000640,47507,0.0132,-0.9774,0.0960,-0.0089,0.0140,0.0183
1760000000660,47439,0.0300,-0.9830,0.1042,0.0190,0.0045,0.0034
1760000000680,47736,0.0245,-0.9778,0.0909,-0.0149,0.0233,0.0039
1760000000700,47640,0.0168,-0.9815,0.1034,0.0077,0.0199,-0.0163
1760000000720,47968,0.0175,-0.9815,0.1087,0.0015,-0.0028,-0.0042
1760000000740,48077,0.0278,-0.9731,0.1036,0.0037,0.0209,-0.0016
1760000000760,48403,0.0220,-0.9796,0.1082,0.0351,0.0265,-0.0383
1760000000780,48807,0.0235,-0.9823,0.0999,0.0228,0.0235,0.0171
1760000000800,48994,0.0202,-0.9758,0.0995,-0.0180,-0.0125,-0.0028
1760000000820,49354,0.0313,-0.9868,0.1024,-0.0018,0.0060,0.0271
1760000000840,49786,0.0192,-0.9828,0.0932,-0.0014,0.0249,-0.0053
1760000000860,50109,0.0235,-0.9780,0.1054,-0.0023,-0.0166,-0.0234
1760000000880,50491,0.0182,-0.9816,0.1042,-0.0158,0.0354,0.0133
1760000000900,50730,0.0168,-0.9746,0.0941,-0.0128,0.0001,0.0041
1760000000920,51113,0.0219,-0.9818,0.0994,0.0253,0.0129,-0.0090
1760000000940,51564,0.0100,-0.9796,0.1033,0.0194,0.0022,-0.0077
1760000000960,51758,0.0190,-0.9776,0.0857,0.0076,-0.0158,0.0188
1760000000980,52019,0.0236,-0.9820,0.1022,-0.0068,0.0043,-0.0027
1760000001000,52095,0.0299,-0.9764,0.0897,0.0179,-0.0279,-0.0046
1760000001020,52278,0.0173,-0.9788,0.0984,-0.0290,-0.0001,0.0073
1760000001040,52576,0.0179,-0.9859,0.0981,0.0131,-0.0177,-0.0144
1760000001060,52536,0.0199,-0.9789,0.0969,-0.0165,-0.0065,-0.0031
1760000001080,52468,0.0222,-0.9773,0.1027,0.0096,-0.0177,-0.0224
1760000001100,52510,0.0201,-0.9794,0.0942,-0.0042,-0.0128,-0.0173
1760000001120,52293,0.0125,-0.9796,0.1058,-0.0142,0.0019,-0.0218
1760000001140,52244,0.0293,-0.9862,0.0989,0.0285,0.0074,0.0023
1760000001160,51828,0.0192,-0.9754,0.1072,0.0128,-0.0116,-0.0137
1760000001180,51604,0.0146,-0.9744,0.0994,-0.0268,0.0264,-0.0335
1760000001200,51570,0.0184,-0.9783,0.1034,0.0052,0.0254,0.0003
1760000001220,51132,0.0167,-0.9872,0.0965,0.0196,0.0165,0.0278
1760000001240,51040,0.0236,-0.9775,0.0934,-0.0049,0.0439,0.0106
1760000001260,50457,0.0215,-0.9895,0.0958,-0.0262,-0.0428,0.0154
1760000001280,50182,0.0191,-0.9783,0.0950,0.0091,0.0153,0.0307
1760000001300,49864,0.0224,-0.9806,0.0959,-0.0121,0.0123,0.0113
1760000001320,49380,0.0283,-0.9768,0.1001,-0.0038,0.0015,-0.0190
1760000001340,48953,0.0217,-0.9829,0.0986,0.0244,-0.0039,0.0263
1760000001360,48704,0.0276,-0.9777,0.0912,0.0248,-0.0041,-0.0393
1760000001380,48416,0.0208,-0.9865,0.0970,0.0109,0.0282,0.0228
1760000001400,48240,0.0256,-0.9924,0.0964,0.0037,-0.0538,0.0154
1760000001420,47989,0.0161,-0.9819,0.0953,-0.0004,-0.0008,-0.0001
1760000001440,47656,0.0219,-0.9817,0.1048,0.0063,-0.0297,-0.0289
1760000001460,47612,0.0176,-0.9777,0.1040,0.0004,-0.0337,-0.0239
1760000001480,47573,0.0147,-0.9745,0.0995,0.0104,-0.0177,-0.0020
1760000001500,47263,0.0190,-0.9771,0.0955,-0.0169,-0.0011,0.0013
1760000001520,47462,0.0234,-0.9882,0.1056,-0.0281,-0.0165,0.0266
1760000001540,47527,0.0117,-0.9796,0.0954,-0.0223,-0.0140,-0.0149
1760000001560,47660,0.0149,-0.9719,0.0966,0.0194,-0.0281,0.0109
1760000001580,47818,0.0177,-0.9768,0.0973,-0.0393,-0.0110,-0.0032
1760000001600,48188,0.0150,-0.9815,0.1003,-0.0330,-0.0021,-0.0166
1760000001620,48441,0.0194,-0.9808,0.0879,-0.0022,-0.0074,-0.0189
1760000001640,48664,0.0137,-0.9791,0.1033,0.0119,-0.0104,0.0336
1760000001660,49100,0.0153,-0.9807,0.0919,-0.0024,0.0143,0.0254
1760000001680,49345,0.0111,-0.9808,0.1068,0.0029,0.0255,0.0166
1760000001700,49863,0.0230,-0.9833,0.1022,0.0507,-0.0104,-0.0371
1760000001720,50273,0.0220,-0.9831,0.0970,-0.0308,0.0141,0.0029
1760000001740,50418,0.0179,-0.9821,0.1053,-0.0036,0.0276,-0.0168
1760000001760,50773,0.0176,-0.9827,0.0995,0.0205,0.0242,-0.0214
1760000001780,51260,0.0205,-0.9721,0.0992,-0.0167,0.0158,0.0125
1760000001800,51433,0.0201,-0.9793,0.1016,-0.0343,-0.0241,0.0011
1760000001820,51770,0.0174,-0.9888,0.1067,-0.0062,-0.0209,0.0319
1760000001840,52082,0.0252,-0.9758,0.1028,-0.0195,0.0006,0.0071
1760000001860,52241,0.0224,-0.9850,0.0970,-0.0066,-0.0039,-0.0175
1760000001880,52197,0.0139,-0.9785,0.0999,0.0116,-0.0377,-0.0083
1760000001900,52517,0.0102,-0.9854,0.0917,0.0242,0.0006,-0.0115
1760000001920,52507,0.0195,-0.9755,0.1058,0.0183,0.0069,0.0153
1760000001940,52556,0.0258,-0.9892,0.1017,0.0016,0.0032,-0.0050
1760000001960,52428,0.0225,-0.9790,0.1006,-0.0215,-0.0251,-0.0150
1760000001980,52182,0.0174,-0.9842,0.0910,-0.0388,-0.0094,-0.0116
1760000002000,52339,0.0243,-0.9839,0.0975,-0.0202,-0.0158,-0.0070
1760000002020,51955,0.0169,-0.9759,0.1032,0.0391,-0.0262,0.0135
1760000002040,51681,0.0120,-0.9815,0.0918,-0.0005,0.0547,0.0261
1760000002060,51572,0.0260,-0.9877,0.1021,0.0028,0.0087,-0.0208
1760000002080,50953,0.0305,-0.9740,0.1015,-0.0098,0.0037,-0.0248
1760000002100,50849,0.0208,-0.9808,0.0978,-0.0013,0.0026,-0.0080
1760000002120,50494,0.0210,-0.9805,0.0957,0.0244,0.0259,0.0138
1760000002140,49905,0.0183,-0.9750,0.1002,0.0255,-0.0088,0.0159
1760000002160,49729,0.0078,-0.9820,0.0988,-0.0125,-0.0179,0.0318
1760000002180,49318,0.0239,-0.9867,0.0896,-0.0095,0.0081,-0.0145
1760000002200,49026,0.0240,-0.9822,0.0997,-0.0148,0.0216,0.0354
1760000002220,48700,0.0175,-0.9835,0.0986,0.0178,-0.0151,0.0296
1760000002240,48269,0.0200,-0.9734,0.1089,-0.0081,0.0158,0.0506
1760000002260,48201,0.0090,-0.9786,0.1119,-0.0232,0.0183,-0.0418
1760000002280,48016,0.0158,-0.9760,0.1046,-0.0556,-0.0286,0.0066
1760000002300,47594,0.0199,-0.9847,0.1067,-0.0102,-0.0183,0.0128
1760000002320,47690,0.0192,-0.9786,0.1025,-0.0099,-0.0238,0.0106
1760000002340,47491,0.0132,-0.9757,0.1022,0.0028,-0.0151,-0.0045
1760000002360,47549,0.0224,-0.9841,0.0955,0.0068,0.0037,0.0170
1760000002380,47442,0.0246,-0.9712,0.1047,0.0026,0.0181,-0.0257
1760000002400,47587,0.0303,-0.9882,0.0942,0.0165,-0.0131,-0.0113
1760000002420,47671,0.0284,-0.9830,0.0986,-0.0363,0.0154,-0.0002
1760000002440,47987,0.0279,-0.9792,0.0940,-0.0203,0.0016,0.0264
1760000002460,48082,0.0188,-0.9807,0.1033,-0.0178,0.0062,0.0157
1760000002480,48444,0.0195,-0.9769,0.1029,0.0252,-0.0216,0.0246
1760000002500,48732,0.0143,-0.9828,0.0938,-0.0040,0.0207,-0.0450
1760000002520,48985,0.0238,-0.9815,0.1040,-0.0266,-0.0011,-0.0521
1760000002540,49361,0.0237,-0.9739,0.1082,-0.0011,-0.0176,-0.0077
1760000002560,49637,0.0268,-0.9741,0.0955,0.0366,-0.0271,0.0112
1760000002580,50092,0.0113,-0.9780,0.0942,0.0239,-0.0180,0.0021
1760000002600,50481,0.0207,-0.9832,0.1041,0.0122,0.0014,-0.0025
1760000002620,51029,0.0165,-0.9822,0.1039,-0.0002,-0.0327,-0.0028
1760000002640,51174,0.0150,-0.9790,0.0943,-0.0050,-0.0227,0.0312
1760000002660,51489,0.0222,-0.9786,0.1035,-0.0030,0.0151,0.0025
1760000002680,51591,0.0216,-0.9865,0.1047,0.0044,-0.0075,-0.0505
1760000002700,51851,0.0141,-0.9819,0.0931,0.0397,0.0092,-0.0018
1760000002720,52137,0.0183,-0.9812,0.0978,-0.0016,0.0161,-0.0352
1760000002740,52379,0.0255,-0.9868,0.0991,-0.0077,-0.0229,0.0190
1760000002760,52430,0.0257,-0.9779,0.0986,0.0057,-0.0075,-0.0328
1760000002780,52612,0.0218,-0.9742,0.0909,0.0209,0.0165,-0.0008
1760000002800,52317,0.0205,-0.9833,0.0990,0.0011,-0.0181,-0.0026
1760000002820,52422,0.0273,-0.9805,0.1118,-0.0237,-0.0027,0.0248
1760000002840,52179,0.0231,-0.9780,0.0970,-0.0048,0.0309,-0.0090
1760000002860,52161,0.0222,-0.9740,0.0897,-0.0294,-0.0268,-0.0056
1760000002880,51975,0.0242,-0.9814,0.1076,-0.0015,0.0138,-0.0152
1760000002900,51739,0.0164,-0.9742,0.1043,0.0374,-0.0085,-0.0232
1760000002920,51450,0.0216,-0.9826,0.0933,0.0160,-0.0390,-0.0093
1760000002940,51150,0.0187,-0.9777,0.1025,0.0119,0.0212,0.0131
1760000002960,50693,0.0138,-0.9814,0.0967,0.0081,0.0246,0.0157
1760000002980,50310,0.0210,-0.9800,0.0976,0.0260,0.0123,0.0072
1760000003000,49902,0.0069,-0.9837,0.1057,-0.0043,-0.0005,-0.0053
1760000003020,49673,0.0200,-0.9714,0.0994,-0.0053,0.0284,0.0150
1760000003040,49333,0.0226,-0.9802,0.1016,0.0107,0.0021,-0.0376
1760000003060,49046,0.0176,-0.9828,0.0983,-0.0145,-0.0175,-0.0017
1760000003080,48687,0.0185,-0.9776,0.0932,0.0151,-0.0227,0.0140
1760000003100,48268,0.0170,-0.9863,0.0937,-0.0045,-0.0195,-0.0045
1760000003120,48165,0.0158,-0.9816,0.0995,-0.0124,-0.0007,0.0047
1760000003140,47945,0.0164,-0.9811,0.0992,0.0244,-0.0200,0.0034
1760000003160,47757,0.0229,-0.9835,0.0948,-0.0370,-0.0107,-0.0051
1760000003180,47459,0.0242,-0.9792,0.0988,-0.0106,0.0095,-0.0057
1760000003200,47554,0.0176,-0.9747,0.0919,-0.0214,0.0360,0.0209
1760000003220,47633,0.0160,-0.9764,0.1050,0.0183,-0.0037,0.0294
1760000003240,47578,0.0135,-0.9677,0.1006,0.0251,-0.0139,-0.0187
1760000003260,47710,0.0241,-0.9837,0.1012,-0.0266,-0.0411,0.0218
1760000003280,47693,0.0237,-0.9747,0.1019,0.0304,0.0073,0.0059
1760000003300,47978,0.0221,-0.9782,0.0953,-0.0010,-0.0075,0.0569
1760000003320,48312,0.0161,-0.9770,0.0912,0.0011,0.0363,0.0016
1760000003340,48591,0.0182,-0.9777,0.1019,-0.0439,-0.0160,0.0379
1760000003360,48729,0.0260,-0.9714,0.0998,0.0201,0.0073,-0.0119
1760000003380,49175,0.0222,-0.9849,0.0978,-0.0270,-0.0067,-0.0008
1760000003400,49402,0.0107,-0.9766,0.1063,-0.0182,0.0014,-0.0134
1760000003420,49632,0.0306,-0.9786,0.0930,0.0254,0.0145,0.0283
1760000003440,50268,0.0227,-0.9728,0.0986,0.0048,-0.0217,-0.0229
1760000003460,50588,0.0212,-0.9879,0.1019,0.0202,-0.0251,-0.0068
1760000003480,51057,0.0158,-0.9771,0.1039,0.0036,0.0029,0.0113
1760000003500,51273,0.0207,-0.9874,0.1012,-0.0158,0.0299,0.0444
1760000003520,51642,0.0092,-0.9750,0.1006,-0.0218,-0.0243,0.0212
1760000003540,51771,0.0196,-0.9797,0.1047,-0.0535,0.0246,-0.0162
1760000003560,52020,0.0231,-0.9782,0.0884,0.0120,-0.0031,-0.0206
1760000003580,52190,0.0120,-0.9761,0.1074,-0.0126,-0.0094,-0.0292
1760000003600,52321,0.0149,-0.9799,0.1087,0.0211,0.0196,-0.0194
1760000003620,52532,0.0164,-0.9844,0.1037,-0.0020,0.0497,0.0038
1760000003640,52475,0.0237,-0.9858,0.1034,0.0312,-0.0027,-0.0103
1760000003660,52570,0.0144,-0.9781,0.0974,0.0060,-0.0157,0.0121
1760000003680,52453,0.0288,-0.9818,0.1022,-0.0353,-0.0157,0.0053
1760000003700,52174,0.0195,-0.9845,0.1024,0.0120,-0.0095,0.0131
1760000003720,52066,0.0206,-0.9774,0.1028,0.0119,0.0340,-0.0129
1760000003740,51880,0.0108,-0.9756,0.0944,-0.0119,-0.0102,0.0083
1760000003760,51611,0.0186,-0.9796,0.0983,-0.0005,-0.0196,-0.0110
1760000003780,51242,0.0243,-0.9755,0.1033,0.0067,-0.0121,0.0111
1760000003800,50893,0.0075,-0.9859,0.1075,0.0049,0.0311,-0.0143
1760000003820,50753,0.0280,-0.9750,0.1014,0.0216,-0.0091,0.0353
1760000003840,50221,0.0162,-0.9799,0.0962,0.0351,0.0134,-0.0147
1760000003860,50082,0.0268,-0.9819,0.1078,0.0237,-0.0100,-0.0112
1760000003880,49608,0.0257,-0.9721,0.1075,-0.0097,-0.0357,-0.0338
1760000003900,49348,0.0253,-0.9741,0.1000,0.0017,0.0097,0.0092
1760000003920,48895,0.0151,-0.9869,0.1008,-0.0032,0.0284,-0.0213
1760000003940,48414,0.0102,-0.9802,0.1084,-0.0069,-0.0140,0.0076
1760000003960,48412,0.0254,-0.9756,0.1047,-0.0058,0.0017,0.0083
1760000003980,48186,0.0090,-0.9827,0.1019,-0.0049,-0.0026,-0.0053
1760000004000,47759,0.0225,-0.9735,0.0982,0.0088,0.0222,-0.0131
1760000004020,47668,0.0135,-0.9721,0.1086,-0.0040,0.0400,0.0171
1760000004040,47420,0.0224,-0.9787,0.1025,0.0137,-0.0091,0.0227
1760000004060,47534,0.0295,-0.9806,0.0875,0.0382,0.0111,-0.0368
1760000004080,47456,0.0160,-0.9753,0.0969,0.0232,-0.0101,0.0192
1760000004100,47506,0.0140,-0.9770,0.0988,0.0104,-0.0330,-0.0208
1760000004120,47629,0.0299,-0.9780,0.0916,-0.0630,0.0372,0.0067
1760000004140,47708,0.0249,-0.9757,0.1107,0.0039,-0.0099,0.0164
1760000004160,47900,0.0178,-0.9850,0.0971,-0.0258,-0.0290,-0.0222
1760000004180,48282,0.0202,-0.9804,0.1024,0.0150,0.0096,0.0415
1760000004200,48553,0.0219,-0.9824,0.1054,0.0286,-0.0594,0.0164
1760000004220,48754,0.0218,-0.9796,0.0937,-0.0271,-0.0051,0.0525
1760000004240,49079,0.0180,-0.9815,0.0987,0.0225,0.0412,-0.0009
1760000004260,49565,0.0184,-0.9721,0.0997,0.0137,-0.0039,0.0226
1760000004280,49890,0.0158,-0.9704,0.0903,0.0035,-0.0071,-0.0182
1760000004300,50429,0.0217,-0.9821,0.0956,0.0068,-0.0001,-0.0048
1760000004320,50568,0.0276,-0.9789,0.0991,-0.0251,-0.0156,0.0147
1760000004340,50909,0.0233,-0.9806,0.1020,0.0070,-0.0087,-0.0053
1760000004360,51290,0.0233,-0.9680,0.1044,-0.0262,0.0444,-0.0024
1760000004380,51538,0.0206,-0.9803,0.1013,-0.0006,-0.0005,0.0253
1760000004400,51994,0.0205,-0.9721,0.1047,0.0239,0.0054,0.0042
1760000004420,52146,0.0152,-0.9797,0.0943,0.0183,0.0043,0.0119
1760000004440,52235,0.0162,-0.9752,0.0978,-0.0043,0.0007,0.0093
1760000004460,52398,0.0148,-0.9852,0.1051,-0.0063,-0.0048,-0.0177
1760000004480,52548,0.0223,-0.9827,0.0914,0.0361,-0.0112,-0.0233
1760000004500,52461,0.0143,-0.9800,0.0972,-0.0237,0.0136,-0.0171
1760000004520,52325,0.0217,-0.9827,0.0946,-0.0334,-0.0141,-0.0121
1760000004540,52355,0.0175,-0.9737,0.1053,0.0063,0.0113,-0.0091
1760000004560,52146,0.0227,-0.9731,0.0965,-0.0138,-0.0140,-0.0265
1760000004580,52126,0.0146,-0.9731,0.1083,0.0017,-0.0009,-0.0171
1760000004600,51930,0.0204,-0.9874,0.0953,0.0094,-0.0100,0.0088
1760000004620,51613,0.0272,-0.9805,0.1053,0.0221,0.0265,-0.0069
1760000004640,51317,0.0327,-0.9810,0.0970,0.0024,-0.0236,-0.0171
1760000004660,50935,0.0186,-0.9750,0.0945,-0.0037,0.0052,-0.0058
1760000004680,50681,0.0312,-0.9854,0.0957,-0.0102,-0.0109,-0.0108
1760000004700,50295,0.0287,-0.9677,0.0996,-0.0411,0.0312,0.0003
1760000004720,49862,0.0255,-0.9806,0.0989,-0.0175,0.0184,0.0169
1760000004740,49463,0.0172,-0.9738,0.0964,-0.0083,-0.0154,-0.0048
1760000004760,49247,0.0203,-0.9750,0.1030,-0.0404,-0.0003,-0.0004
1760000004780,48709,0.0239,-0.9803,0.0975,0.0104,0.0192,0.0144
1760000004800,48488,0.0198,-0.9678,0.0935,0.0014,0.0007,0.0300
1760000004820,48300,0.0211,-0.9815,0.1062,0.0014,-0.0019,0.0034
1760000004840,48064,0.0202,-0.9787,0.1040,-0.0145,-0.0048,0.0014
1760000004860,47864,0.0228,-0.9824,0.0948,-0.0075,-0.0100,0.0178
1760000004880,47708,0.0203,-0.9854,0.0935,0.0025,0.0122,0.0075
1760000004900,47534,0.0229,-0.9899,0.1057,0.0301,0.0035,0.0048
1760000004920,47488,0.0245,-0.9846,0.0971,0.0080,-0.0285,0.0099
1760000004940,47545,0.0199,-0.9825,0.1087,-0.0107,0.0031,0.0161
1760000004960,47565,0.0252,-0.9800,0.1013,-0.0001,0.0132,-0.0129
1760000004980,47747,0.0252,-0.9852,0.0925,-0.0265,-0.0159,0.0138
1760000005000,47840,0.0294,-0.9721,0.0923,-0.0078,-0.0060,0.0321
1760000005020,48103,0.0246,-0.9841,0.1102,-0.0221,0.0006,-0.0192
1760000005040,48217,0.0213,-0.9845,0.1034,0.0104,0.0011,0.0127
1760000005060,48663,0.0255,-0.9857,0.1033,0.0179,-0.0075,-0.0077
1760000005080,48985,0.0233,-0.9793,0.1072,0.0186,0.0347,-0.0078
1760000005100,49306,0.0101,-0.9832,0.1083,-0.0194,-0.0030,-0.0069
1760000005120,49621,0.0257,-0.9720,0.0992,0.0067,0.0175,0.0232
1760000005140,49925,0.0268,-0.9872,0.1014,-0.0275,-0.0092,-0.0158
1760000005160,50455,0.0284,-0.9761,0.1008,-0.0391,-0.0340,0.0037
1760000005180,50731,0.0226,-0.9836,0.0961,0.0108,0.0454,0.0146
1760000005200,51014,0.0194,-0.9778,0.1015,-0.0286,0.0309,0.0091
1760000005220,51384,0.0177,-0.9745,0.1051,-0.0145,0.0205,-0.0142
1760000005240,51486,0.0242,-0.9850,0.0972,-0.0187,-0.0015,-0.0072
1760000005260,51905,0.0224,-0.9718,0.1023,0.0102,0.0098,0.0163
1760000005280,52183,0.0214,-0.9858,0.0952,0.0057,-0.0063,-0.0082
1760000005300,52242,0.0164,-0.9745,0.1039,-0.0254,0.0038,-0.0004
1760000005320,52371,0.0252,-0.9784,0.1004,-0.0171,0.0190,0.0050
1760000005340,52503,0.0166,-0.9725,0.0845,-0.0278,-0.0332,-0.0258
1760000005360,52417,0.0175,-0.9817,0.1010,0.0271,0.0113,0.0025
1760000005380,52453,0.0219,-0.9760,0.0963,0.0350,-0.0003,0.0171
1760000005400,52182,0.0210,-0.9820,0.1068,0.0203,0.0064,0.0126
1760000005420,52215,0.0155,-0.9743,0.0940,-0.0105,-0.0233,-0.0189
1760000005440,52020,0.0242,-0.9848,0.1037,-0.0372,-0.0166,-0.0173
1760000005460,51876,0.0266,-0.9916,0.1004,0.0324,0.0005,0.0329
1760000005480,51645,0.0214,-0.9870,0.0967,0.0309,-0.0177,-0.0216
1760000005500,51214,0.0263,-0.9795,0.0924,-0.0125,0.0135,0.0230
1760000005520,51042,0.0226,-0.9777,0.0952,-0.0112,-0.0272,-0.0028
1760000005540,50603,0.0202,-0.9847,0.1029,0.0183,0.0247,-0.0431
1760000005560,50016,0.0146,-0.9773,0.1051,0.0146,0.0008,0.0050
1760000005580,49823,0.0166,-0.9849,0.1158,-0.0050,0.0111,0.0109
1760000005600,49552,0.0198,-0.9753,0.1100,-0.0127,-0.0115,-0.0199
1760000005620,49100,0.0139,-0.9783,0.1033,0.0242,0.0257,-0.0074
1760000005640,48811,0.0160,-0.9797,0.1005,0.0100,-0.0012,-0.0213
1760000005660,48568,0.0193,-0.9869,0.0915,0.0136,-0.0355,0.0135
1760000005680,48335,0.0227,-0.9759,0.1028,-0.0119,0.0044,-0.0372
1760000005700,48027,0.0232,-0.9793,0.1054,-0.0033,-0.0340,0.0282
1760000005720,47792,0.0170,-0.9826,0.0982,0.0041,-0.0252,0.0022
1760000005740,47611,0.0232,-0.9816,0.1032,-0.0175,0.0071,-0.0060
1760000005760,47629,0.0219,-0.9749,0.0976,-0.0120,-0.0006,-0.0204
1760000005780,47481,0.0263,-0.9853,0.0972,0.0016,0.0324,0.0423
1760000005800,47470,0.0177,-0.9787,0.0968,-0.0393,0.0117,0.0074
1760000005820,47601,0.0227,-0.9791,0.0969,0.0125,-0.0006,0.0033
1760000005840,47609,0.0204,-0.9802,0.0958,-0.0151,-0.0085,0.0002
1760000005860,47812,0.0146,-0.9796,0.0940,0.0064,-0.0170,-0.0039
1760000005880,48162,0.0090,-0.9866,0.0974,-0.0029,-0.0173,-0.0186
1760000005900,48278,0.0150,-0.9795,0.0966,-0.0032,0.0008,0.0133
1760000005920,48567,0.0179,-0.9779,0.0893,0.0011,-0.0178,0.0172
1760000005940,48910,0.0157,-0.9749,0.0973,-0.0174,0.0090,-0.0382
1760000005960,49264,0.0235,-0.9862,0.1047,-0.0060,-0.0109,-0.0330
1760000005980,49746,0.0266,-0.9817,0.1018,-0.0376,0.0013,0.0073
1760000006000,49940,0.0168,-0.9810,0.0960,-0.0333,0.0147,0.0171
1760000006020,50410,0.0235,-0.9749,0.0984,-0.0587,0.0002,-0.0112
1760000006040,50630,0.0224,-0.9850,0.0941,0.0471,-0.0080,0.0030
1760000006060,51110,0.0229,-0.9806,0.1025,-0.0020,-0.0091,-0.0054
1760000006080,51432,0.0234,-0.9779,0.0925,-0.0045,0.0099,-0.0078
1760000006100,51711,0.0206,-0.9742,0.0887,0.0032,0.0209,0.0132
1760000006120,51886,0.0189,-0.9817,0.1021,0.0145,-0.0115,0.0209
1760000006140,52174,0.0097,-0.9819,0.0993,-0.0133,0.0017,-0.0011
1760000006160,52297,0.0186,-0.9786,0.0971,0.0107,-0.0350,0.0013
1760000006180,52383,0.0181,-0.9786,0.0969,-0.0628,-0.0288,-0.0041
1760000006200,52464,0.0176,-0.9832,0.1033,0.0001,-0.0206,-0.0171
1760000006220,52572,0.0205,-0.9782,0.1001,0.0041,-0.0107,-0.0193
1760000006240,52379,0.0157,-0.9713,0.1031,0.0010,-0.0022,-0.0318
1760000006260,52421,0.0115,-0.9750,0.0975,-0.0277,0.0288,-0.0194
1760000006280,52194,0.0192,-0.9873,0.1022,-0.0262,-0.0038,-0.0224
1760000006300,52147,0.0202,-0.9729,0.0974,0.0044,0.0105,0.0013
1760000006320,51765,0.0255,-0.9782,0.1003,0.0161,-0.0537,-0.0204
1760000006340,51549,0.0182,-0.9814,0.0927,-0.0072,0.0270,-0.0098
1760000006360,51125,0.0186,-0.9748,0.0968,-0.0322,0.0046,-0.0069
1760000006380,50883,0.0116,-0.9855,0.0985,0.0066,0.0343,0.0268
1760000006400,50609,0.0247,-0.9749,0.1031,0.0124,-0.0077,-0.0097
1760000006420,50260,0.0143,-0.9829,0.0989,0.0036,-0.0133,-0.0091
1760000006440,49728,0.0163,-0.9819,0.1164,-0.0232,0.0479,-0.0245
1760000006460,49443,0.0196,-0.9769,0.0985,-0.0212,-0.0109,-0.0065
1760000006480,48963,0.0195,-0.9795,0.0926,-0.0261,0.0157,-0.0187
1760000006500,48698,0.0171,-0.9831,0.1026,0.0044,0.0416,-0.0072
1760000006520,48476,0.0166,-0.9753,0.0925,-0.0164,-0.0044,0.0548
1760000006540,48352,0.0298,-0.9801,0.0924,0.0108,0.0211,-0.0133
1760000006560,48102,0.0297,-0.9883,0.0980,-0.0053,-0.0051,-0.0030
1760000006580,47764,0.0187,-0.9673,0.0977,-0.0241,0.0232,0.0197
1760000006600,47533,0.0156,-0.9843,0.0894,-0.0260,0.0089,-0.0262
1760000006620,47515,0.0186,-0.9829,0.1023,0.0034,0.0245,0.0067
1760000006640,47453,0.0282,-0.9785,0.1024,0.0058,-0.0065,-0.0184
1760000006660,47617,0.0164,-0.9815,0.1044,0.0197,0.0005,0.0394
1760000006680,47575,0.0316,-0.9732,0.1009,-0.0046,0.0222,-0.0335
1760000006700,47773,0.0234,-0.9722,0.1070,0.0060,0.0095,-0.0190
1760000006720,47933,0.0162,-0.9867,0.1087,0.0352,-0.0021,0.0061
1760000006740,48297,0.0133,-0.9725,0.0985,0.0126,-0.0015,0.0306
1760000006760,48463,0.0192,-0.9741,0.1047,0.0280,-0.0208,0.0173
1760000006780,48661,0.0213,-0.9877,0.1107,-0.0011,0.0091,-0.0292
1760000006800,48968,0.0209,-0.9794,0.0945,0.0070,-0.0080,0.0180
1760000006820,49238,0.0259,-0.9851,0.0945,0.0094,0.0121,0.0086
1760000006840,49642,0.0186,-0.9845,0.1056,-0.0351,-0.0238,-0.0232
1760000006860,50094,0.0126,-0.9760,0.0915,-0.0342,0.0066,0.0081
1760000006880,50388,0.0267,-0.9822,0.0974,-0.0036,0.0267,-0.0034
1760000006900,50923,0.0268,-0.9746,0.1045,0.0260,0.0096,-0.0470
1760000006920,51126,0.0194,-0.9858,0.0907,0.0028,-0.0218,0.0000
1760000006940,51361,0.0217,-0.9848,0.1012,-0.0009,-0.0092,-0.0052
1760000006960,51733,0.0068,-0.9896,0.1005,0.0005,0.0048,0.0068
1760000006980,51882,0.0265,-0.9762,0.1017,-0.0049,-0.0142,-0.0119
1760000007000,52195,0.0205,-0.9759,0.1012,-0.0088,0.0232,-0.0283
1760000007020,52217,0.0219,-0.9824,0.0929,-0.0294,0.0000,0.0272
1760000007040,52547,0.0195,-0.9813,0.0959,0.0377,-0.0018,-0.0075
1760000007060,52552,0.0257,-0.9798,0.1061,-0.0250,0.0089,0.0119
1760000007080,52528,0.0233,-0.9791,0.1029,-0.0419,-0.0145,0.0170
1760000007100,52357,0.0156,-0.9700,0.1003,0.0055,0.0075,0.0345
1760000007120,52322,0.0159,-0.9787,0.1070,-0.0355,-0.0026,-0.0079
1760000007140,52202,0.0233,-0.9784,0.0922,-0.0047,-0.0026,-0.0010
1760000007160,52076,0.0184,-0.9832,0.0992,0.0006,0.0139,-0.0343
1760000007180,51641,0.0196,-0.9754,0.0997,0.0047,0.0348,0.0023
1760000007200,51493,0.0198,-0.9751,0.1025,-0.0050,0.0142,0.0090
1760000007220,51120,0.0237,-0.9698,0.0946,-0.0213,-0.0022,-0.0040
1760000007240,50841,0.0198,-0.9792,0.1056,0.0256,-0.0416,0.0109
1760000007260,50471,0.0227,-0.9797,0.1018,-0.0043,-0.0128,-0.0032
1760000007280,50169,0.0202,-0.9804,0.1062,0.0172,-0.0175,-0.0158
1760000007300,49725,0.0224,-0.9748,0.0915,0.0266,0.0012,0.0044
1760000007320,49445,0.0214,-0.9790,0.1049,0.0236,-0.0221,-0.0315
1760000007340,48948,0.0213,-0.9813,0.0990,-0.0098,-0.0168,0.0106
1760000007360,48702,0.0215,-0.9773,0.1074,0.0423,-0.0116,0.0257
1760000007380,48421,0.0222,-0.9744,0.0971,-0.0025,0.0195,0.0120
1760000007400,48287,0.0231,-0.9793,0.0994,0.0120,-0.0363,0.0258
1760000007420,47944,0.0169,-0.9795,0.1027,-0.0235,0.0179,-0.0432
1760000007440,47854,0.0186,-0.9787,0.0987,-0.0119,0.0193,-0.0191
1760000007460,47601,0.0227,-0.9860,0.1031,-0.0178,0.0175,-0.0067
1760000007480,47630,0.0197,-0.9850,0.1049,0.0239,0.0189,-0.0293
1760000007500,47415,0.0246,-0.9776,0.0985,-0.0037,0.0034,-0.0428
1760000007520,47431,0.0140,-0.9748,0.0981,-0.0417,-0.0031,-0.0071
1760000007540,47549,0.0128,-0.9845,0.1015,-0.0088,0.0152,0.0265
1760000007560,47710,0.0121,-0.9849,0.1003,0.0149,-0.0038,-0.0010
1760000007580,47935,0.0260,-0.9765,0.0982,-0.0120,-0.0008,-0.0122
1760000007600,48063,0.0251,-0.9791,0.0946,0.0081,-0.0211,-0.0195
1760000007620,48277,0.0141,-0.9825,0.1012,-0.0022,0.0054,0.0006
1760000007640,48668,0.0258,-0.9856,0.0949,0.0405,0.0043,0.0041
1760000007660,49240,0.0145,-0.9720,0.0997,-0.0042,-0.0200,-0.0015
1760000007680,49436,0.0198,-0.9824,0.1019,0.0249,0.0007,-0.0087
1760000007700,49706,0.0219,-0.9830,0.1069,-0.0115,0.0211,-0.0039
1760000007720,50162,0.0142,-0.9811,0.0950,-0.0159,-0.0011,-0.0237
1760000007740,50624,0.0283,-0.9755,0.1000,-0.0119,-0.0344,0.0161
1760000007760,50727,0.0197,-0.9831,0.0999,0.0332,-0.0019,-0.0041
1760000007780,51230,0.0173,-0.9897,0.0961,-0.0052,-0.0159,0.0194
1760000007800,51564,0.0149,-0.9798,0.1010,-0.0086,-0.0131,0.0084
1760000007820,51716,0.0290,-0.9802,0.1000,0.0036,0.0042,-0.0087
1760000007840,52037,0.0240,-0.9790,0.1020,-0.0278,-0.0089,0.0015
1760000007860,52164,0.0254,-0.9782,0.0998,-0.0136,-0.0080,-0.0055
1760000007880,52474,0.0140,-0.9754,0.0981,0.0320,0.0183,-0.0173
1760000007900,52472,0.0129,-0.9765,0.0993,-0.0212,-0.0012,0.0114
1760000007920,52689,0.0242,-0.9782,0.0996,-0.0449,-0.0297,-0.0472
1760000007940,52394,0.0249,-0.9737,0.1013,-0.0083,0.0137,0.0464
1760000007960,52446,0.0269,-0.9733,0.0959,0.0024,-0.0167,0.0064
1760000007980,52289,0.0153,-0.9766,0.0996,-0.0050,0.0171,0.0087
1760000008000,52263,0.0291,-0.9863,0.1023,-0.0354,0.0177,0.0383
1760000008020,51882,0.0260,-0.9766,0.1019,-0.0440,-0.0211,-0.0078
1760000008040,51716,0.0206,-0.9760,0.1006,-0.0038,-0.0199,-0.0154
1760000008060,51410,0.0311,-0.9819,0.0996,0.0196,0.0158,0.0123
1760000008080,51119,0.0280,-0.9829,0.1070,0.0309,0.0052,-0.0108
1760000008100,50722,0.0213,-0.9899,0.1064,-0.0172,-0.0246,0.0099
1760000008120,50422,0.0157,-0.9735,0.0941,-0.0116,-0.0317,0.0347
1760000008140,50099,0.0128,-0.9775,0.0969,-0.0170,-0.0035,-0.0393
1760000008160,49702,0.0200,-0.9726,0.0956,-0.0280,-0.0192,-0.0118
1760000008180,49394,0.0311,-0.9771,0.1021,-0.0226,-0.0283,-0.0242
1760000008200,49035,0.0256,-0.9811,0.0935,0.0152,-0.0022,-0.0149
1760000008220,48535,0.0108,-0.9725,0.0976,0.0059,0.0096,0.0175
1760000008240,48543,0.0191,-0.9740,0.0956,-0.0287,-0.0006,-0.0393
1760000008260,47985,0.0161,-0.9769,0.0988,-0.0358,-0.0008,-0.0118
1760000008280,47847,0.0171,-0.9806,0.1038,0.0101,0.0006,-0.0168
1760000008300,47590,0.0295,-0.9725,0.0915,0.0074,0.0079,0.0021
1760000008320,47606,0.0179,-0.9729,0.1017,0.0199,0.0056,0.0039
1760000008340,47484,0.0260,-0.9892,0.1068,-0.0043,0.0051,-0.0106
1760000008360,47355,0.0154,-0.9780,0.0977,0.0096,-0.0177,-0.0356
1760000008380,47524,0.0178,-0.9839,0.1071,-0.0363,0.0023,-0.0060
1760000008400,47727,0.0206,-0.9783,0.1012,0.0043,-0.0045,-0.0033
1760000008420,47828,0.0310,-0.9850,0.1012,-0.0216,0.0382,0.0346
1760000008440,47966,0.0271,-0.9789,0.0941,0.0356,-0.0312,-0.0209
1760000008460,48271,0.0244,-0.9770,0.0981,-0.0142,-0.0236,0.0241
1760000008480,48491,0.0310,-0.9778,0.1027,-0.0109,-0.0095,0.0101
1760000008500,48686,0.0252,-0.9747,0.0937,0.0123,0.0050,0.0043
1760000008520,49053,0.0258,-0.9789,0.1032,0.0077,-0.0128,-0.0232
1760000008540,49562,0.0286,-0.9801,0.1054,0.0263,0.0302,0.0193
1760000008560,49782,0.0235,-0.9825,0.1012,-0.0186,-0.0323,-0.0179
1760000008580,50033,0.0221,-0.9766,0.1023,-0.0152,-0.0005,-0.0259
1760000008600,50553,0.0229,-0.9705,0.0950,-0.0030,-0.0020,0.0469
1760000008620,50891,0.0223,-0.9874,0.0993,0.0437,0.0274,0.0135
1760000008640,51175,0.0155,-0.9788,0.0970,0.0452,-0.0109,-0.0095
1760000008660,51572,0.0213,-0.9844,0.0935,-0.0162,0.0315,-0.0113
1760000008680,51774,0.0246,-0.9720,0.1041,0.0080,-0.0118,-0.0182
1760000008700,52035,0.0198,-0.9788,0.0898,-0.0275,0.0159,0.0295
1760000008720,52230,0.0139,-0.9770,0.0957,-0.0054,-0.0052,0.0153
1760000008740,52448,0.0231,-0.9847,0.1053,-0.0095,-0.0296,0.0187
1760000008760,52607,0.0149,-0.9819,0.0971,-0.0092,0.0238,0.0164
1760000008780,52513,0.0209,-0.9837,0.0975,-0.0137,0.0121,0.0134
1760000008800,52458,0.0236,-0.9842,0.1104,-0.0209,-0.0106,-0.0015
1760000008820,52487,0.0214,-0.9843,0.1029,0.0159,-0.0220,-0.0421
1760000008840,52351,0.0149,-0.9749,0.1091,0.0256,0.0065,0.0172
1760000008860,52126,0.0158,-0.9806,0.0979,0.0049,-0.0230,-0.0209
1760000008880,51934,0.0205,-0.9797,0.1047,-0.0289,0.0126,-0.0051
1760000008900,51670,0.0254,-0.9794,0.1045,0.0317,-0.0009,-0.0361
1760000008920,51343,0.0177,-0.9789,0.0960,0.0029,0.0048,-0.0385
1760000008940,51191,0.0170,-0.9867,0.0961,0.0147,0.0624,-0.0398
1760000008960,50669,0.0258,-0.9834,0.1003,-0.0086,-0.0006,0.0058
1760000008980,50287,0.0151,-0.9872,0.1011,0.0484,0.0230,-0.0019
1760000009000,50103,0.0231,-0.9815,0.0968,0.0028,-0.0160,-0.0005
1760000009020,49669,0.0138,-0.9857,0.0985,-0.0160,-0.0020,0.0064
1760000009040,49305,0.0234,-0.9796,0.1014,-0.0023,0.0017,-0.0015
1760000009060,48935,0.0183,-0.9785,0.1041,0.0263,0.0313,0.0153
1760000009080,48568,0.0135,-0.9879,0.0985,0.0038,0.0201,0.0018
1760000009100,48328,0.0140,-0.9765,0.1093,-0.0082,0.0422,0.0147
1760000009120,48008,0.0231,-0.9788,0.1018,-0.0239,0.0075,0.0177
1760000009140,47767,0.0224,-0.9737,0.1016,-0.0136,-0.0041,0.0149
1760000009160,47740,0.0195,-0.9832,0.0965,-0.0037,-0.0233,0.0077
1760000009180,47734,0.0190,-0.9802,0.1006,0.0119,-0.0052,0.0107
1760000009200,47447,0.0146,-0.9829,0.1025,-0.0128,-0.0146,0.0045
1760000009220,47343,0.0178,-0.9916,0.0969,0.0370,-0.0328,0.0221
1760000009240,47496,0.0172,-0.9819,0.1097,-0.0114,0.0012,-0.0097
1760000009260,47618,0.0236,-0.9785,0.1005,-0.0135,0.0038,-0.0043
1760000009280,47781,0.0204,-0.9826,0.0936,0.0079,-0.0359,0.0176
1760000009300,47931,0.0154,-0.9749,0.0967,0.0012,-0.0182,0.0082
1760000009320,48239,0.0187,-0.9811,0.0923,0.0222,-0.0133,-0.0028
1760000009340,48449,0.0211,-0.9812,0.0981,-0.0061,0.0040,0.0302
1760000009360,48705,0.0251,-0.9796,0.1022,-0.0136,0.0195,0.0147
1760000009380,48979,0.0114,-0.9717,0.0971,-0.0049,-0.0302,-0.0007
1760000009400,49484,0.0175,-0.9737,0.0989,0.0164,0.0005,0.0033
1760000009420,49820,0.0171,-0.9730,0.1055,0.0228,-0.0134,-0.0084
1760000009440,50221,0.0182,-0.9770,0.1080,-0.0112,-0.0084,-0.0303
1760000009460,50668,0.0208,-0.9784,0.0966,0.0001,-0.0062,-0.0137
1760000009480,50961,0.0264,-0.9739,0.0984,0.0604,-0.0130,0.0003
1760000009500,51145,0.0186,-0.9785,0.0969,-0.0022,-0.0195,-0.0087
1760000009520,51455,0.0177,-0.9907,0.0958,-0.0094,-0.0033,0.0246
1760000009540,51735,0.0163,-0.9760,0.0954,-0.0076,-0.0343,-0.0620
1760000009560,52222,0.0236,-0.9701,0.0994,-0.0287,0.0067,-0.0189
1760000009580,52255,0.0219,-0.9772,0.0960,0.0023,0.0071,0.0265
1760000009600,52347,0.0293,-0.9769,0.1019,-0.0123,0.0063,0.0121
1760000009620,52385,0.0231,-0.9787,0.0986,-0.0163,-0.0042,0.0131
1760000009640,52634,0.0207,-0.9817,0.1033,0.0187,0.0146,-0.0034
1760000009660,52287,0.0209,-0.9804,0.0942,0.0006,-0.0201,-0.0064
1760000009680,52504,0.0170,-0.9918,0.1050,-0.0025,-0.0003,-0.0362
1760000009700,52135,0.0181,-0.9827,0.1007,-0.0046,0.0062,-0.0088
1760000009720,52138,0.0174,-0.9777,0.1030,-0.0307,-0.0008,-0.0077
1760000009740,51890,0.0290,-0.9831,0.0991,0.0041,-0.0433,0.0277
1760000009760,51680,0.0191,-0.9755,0.1130,-0.0163,0.0262,0.0337
1760000009780,51275,0.0223,-0.9865,0.1013,-0.0137,0.0114,-0.0078
1760000009800,51115,0.0260,-0.9716,0.0995,-0.0062,-0.0060,-0.0123
1760000009820,50663,0.0150,-0.9813,0.1040,0.0193,0.0082,-0.0306
1760000009840,50433,0.0291,-0.9757,0.0980,0.0129,-0.0018,-0.0311
1760000009860,50038,0.0243,-0.9774,0.1034,0.0008,-0.0234,0.0298
1760000009880,49558,0.0184,-0.9776,0.0919,-0.0043,0.0116,-0.0045
1760000009900,49040,0.0209,-0.9756,0.0935,0.0454,0.0037,0.0012
1760000009920,48925,0.0251,-0.9787,0.0997,0.0072,-0.0233,0.0398
1760000009940,48442,0.0192,-0.9837,0.1007,-0.0016,0.0206,-0.0016
1760000009960,48268,0.0303,-0.9849,0.1000,-0.0071,0.0196,0.0003
1760000009980,48137,0.0164,-0.9785,0.1029,0.0004,0.0061,-0.0308
1760000010000,47875,0.0187,-0.9706,0.0953,-0.0292,0.0402,0.0385
1760000010020,47660,0.0105,-0.9835,0.1015,0.0088,0.0198,0.0236
1760000010040,47617,0.0192,-0.9732,0.1079,0.0075,-0.0072,0.0158
1760000010060,47522,0.0199,-0.9794,0.1058,0.0301,0.0203,0.0086
1760000010080,47478,0.0123,-0.9810,0.1025,-0.0169,0.0085,-0.0158
1760000010100,47576,0.0066,-0.9779,0.1036,0.0007,0.0137,-0.0191
1760000010120,47664,0.0180,-0.9796,0.1000,0.0034,-0.0146,-0.0086
1760000010140,47669,0.0188,-0.9924,0.1017,0.0385,-0.0094,-0.0086
1760000010160,48016,0.0221,-0.9763,0.0974,-0.0058,0.0084,0.0083
1760000010180,48154,0.0225,-0.9715,0.0914,-0.0080,-0.0058,-0.0204
1760000010200,48426,0.0283,-0.9790,0.1021,0.0193,-0.0237,0.0245
1760000010220,48792,0.0253,-0.9800,0.1068,0.0115,-0.0002,0.0200
1760000010240,49130,0.0233,-0.9867,0.0993,0.0382,0.0182,-0.0188
1760000010260,49638,0.0186,-0.9779,0.0983,0.0126,-0.0099,0.0280
1760000010280,49873,0.0171,-0.9819,0.0934,0.0138,0.0224,0.0275
1760000010300,50303,0.0193,-0.9734,0.1072,-0.0119,-0.0243,-0.0093
1760000010320,50623,0.0256,-0.9745,0.1020,0.0232,-0.0047,-0.0016
1760000010340,50796,0.0176,-0.9811,0.1060,-0.0015,-0.0065,0.0031
1760000010360,51269,0.0104,-0.9831,0.0994,-0.0035,-0.0125,-0.0085
1760000010380,51642,0.0129,-0.9812,0.0972,-0.0043,0.0013,0.0140
1760000010400,51652,0.0192,-0.9855,0.0918,0.0038,0.0024,-0.0139
1760000010420,52066,0.0160,-0.9730,0.1085,0.0228,-0.0229,0.0140
1760000010440,52290,0.0205,-0.9806,0.0988,-0.0113,-0.0131,-0.0155
1760000010460,52583,0.0228,-0.9832,0.0969,0.0111,0.0361,0.0339
1760000010480,52399,0.0136,-0.9830,0.1016,-0.0102,-0.0110,0.0412
1760000010500,52400,0.0234,-0.9807,0.0972,0.0382,-0.0250,0.0056
1760000010520,52461,0.0167,-0.9820,0.1005,0.0516,0.0101,-0.0049
1760000010540,52283,0.0212,-0.9760,0.1140,-0.0309,-0.0283,-0.0354
1760000010560,52140,0.0259,-0.9805,0.0965,0.0030,-0.0016,-0.0027
1760000010580,52175,0.0243,-0.9818,0.1062,0.0203,-0.0049,-0.0089
1760000010600,51828,0.0154,-0.9905,0.1057,0.0272,-0.0478,-0.0059
1760000010620,51518,0.0181,-0.9780,0.1054,0.0099,0.0142,0.0223
1760000010640,51317,0.0257,-0.9755,0.0967,0.0151,-0.0077,0.0208
1760000010660,51063,0.0132,-0.9770,0.0953,-0.0102,-0.0092,0.0106
1760000010680,50676,0.0198,-0.9902,0.1026,0.0230,-0.0521,-0.0117
1760000010700,50215,0.0212,-0.9814,0.1051,-0.0077,-0.0176,-0.0386
1760000010720,49748,0.0189,-0.9768,0.0949,0.0128,-0.0080,0.0173
1760000010740,49636,0.0223,-0.9846,0.1052,0.0040,0.0012,0.0076
1760000010760,49233,0.0258,-0.9865,0.1061,0.0051,0.0267,-0.0019
1760000010780,48907,0.0248,-0.9733,0.0985,0.0292,-0.0096,-0.0235
1760000010800,48467,0.0136,-0.9730,0.1049,-0.0365,-0.0042,0.0053
1760000010820,48269,0.0174,-0.9834,0.1043,-0.0016,-0.0175,0.0055
1760000010840,47957,0.0188,-0.9761,0.0990,0.0506,-0.0281,-0.0194
1760000010860,47935,0.0211,-0.9808,0.1048,-0.0036,-0.0191,0.0306
1760000010880,47666,0.0210,-0.9791,0.0998,-0.0168,-0.0198,-0.0328
1760000010900,47626,0.0204,-0.9810,0.0927,-0.0267,-0.0079,0.0066
1760000010920,47492,0.0196,-0.9844,0.1039,0.0058,0.0259,0.0106
1760000010940,47429,0.0169,-0.9809,0.1056,0.0012,-0.0001,0.0283
1760000010960,47637,0.0232,-0.9887,0.0991,0.0397,0.0135,0.0254
1760000010980,47823,0.0240,-0.9897,0.1019,-0.0038,-0.0173,0.0205
1760000011000,47778,0.0264,-0.9777,0.0975,-0.0167,0.0369,-0.0040
1760000011020,48070,0.0199,-0.9842,0.0984,-0.0037,-0.0337,-0.0146
1760000011040,48217,0.0216,-0.9792,0.0939,-0.0122,0.0019,-0.0162
1760000011060,48438,0.0243,-0.9800,0.0983,-0.0093,0.0068,-0.0083
1760000011080,48892,0.0255,-0.9730,0.1083,-0.0199,-0.0008,-0.0255
1760000011100,49142,0.0131,-0.9820,0.0978,-0.0195,-0.0019,0.0102
1760000011120,49542,0.0158,-0.9762,0.0988,0.0044,-0.0211,0.0112
1760000011140,50014,0.0148,-0.9854,0.0979,0.0117,0.0149,0.0223
1760000011160,50240,0.0103,-0.9845,0.1003,0.0086,-0.0271,-0.0011
1760000011180,50643,0.0222,-0.9845,0.0991,-0.0068,0.0049,0.0000
1760000011200,51047,0.0210,-0.9759,0.0952,0.0680,0.0277,-0.0275
1760000011220,51391,0.0175,-0.9840,0.1060,-0.0464,-0.0158,0.0100
1760000011240,51500,0.0244,-0.9823,0.1000,0.0294,0.0019,0.0204
1760000011260,52002,0.0172,-0.9820,0.1068,0.0124,0.0301,0.0475
1760000011280,52040,0.0196,-0.9777,0.0935,-0.0192,-0.0296,-0.0057
1760000011300,52291,0.0283,-0.9670,0.0992,-0.0031,0.0057,0.0076
1760000011320,52403,0.0273,-0.9742,0.0971,-0.0452,0.0003,0.0291
1760000011340,52606,0.0177,-0.9829,0.1003,-0.0123,-0.0186,-0.0121
1760000011360,52646,0.0274,-0.9784,0.1045,-0.0104,-0.0120,0.0140
1760000011380,52503,0.0135,-0.9737,0.0891,-0.0126,0.0240,0.0288
1760000011400,52605,0.0187,-0.9807,0.1022,0.0019,-0.0215,-0.0058
1760000011420,52211,0.0249,-0.9811,0.1006,-0.0005,-0.0061,0.0217
1760000011440,52016,0.0225,-0.9737,0.0992,0.0223,-0.0094,0.0065
1760000011460,51711,0.0250,-0.9741,0.0999,-0.0318,-0.0063,0.0003
1760000011480,51654,0.0085,-0.9787,0.1006,-0.0297,0.0136,-0.0351
1760000011500,51296,0.0249,-0.9846,0.0946,-0.0192,-0.0093,0.0098
1760000011520,50973,0.0179,-0.9772,0.0946,-0.0023,-0.0351,0.0283
1760000011540,50469,0.0156,-0.9716,0.1049,-0.0210,0.0185,0.0550
1760000011560,50233,0.0153,-0.9830,0.1087,-0.0104,-0.0163,0.0506
1760000011580,49709,0.0159,-0.9885,0.0965,-0.0097,0.0093,-0.0296
1760000011600,49534,0.0169,-0.9729,0.0971,0.0001,-0.0385,-0.0367
1760000011620,49171,0.0303,-0.9884,0.0986,-0.0042,0.0007,0.0132
1760000011640,48845,0.0238,-0.9929,0.0921,0.0437,0.0248,-0.0344
1760000011660,48447,0.0222,-0.9841,0.0976,-0.0316,-0.0217,0.0400
1760000011680,48223,0.0195,-0.9770,0.0961,0.0067,-0.0018,0.0132
1760000011700,47898,0.0190,-0.9743,0.1027,-0.0183,-0.0399,0.0114
1760000011720,47815,0.0170,-0.9850,0.0996,0.0048,0.0125,0.0092
1760000011740,47670,0.0166,-0.9782,0.0997,-0.0087,0.0033,0.0510
1760000011760,47498,0.0186,-0.9796,0.0992,-0.0037,0.0103,-0.0191
1760000011780,47550,0.0251,-0.9829,0.1101,-0.0298,0.0091,0.0026
1760000011800,47538,0.0161,-0.9871,0.1017,-0.0360,0.0177,0.0154
1760000011820,47589,0.0236,-0.9785,0.1012,-0.0004,-0.0135,-0.0038
1760000011840,47693,0.0170,-0.9802,0.0940,0.0079,-0.0019,-0.0434
1760000011860,47836,0.0148,-0.9807,0.1083,-0.0174,0.0040,-0.0200
1760000011880,48043,0.0236,-0.9780,0.0997,0.0187,0.0212,0.0413
1760000011900,48178,0.0123,-0.9863,0.0961,0.0182,0.0015,-0.0123
1760000011920,48592,0.0150,-0.9755,0.1013,-0.0020,-0.0358,-0.0128
1760000011940,48818,0.0171,-0.9769,0.0957,0.0128,-0.0192,0.0370
1760000011960,49263,0.0173,-0.9762,0.1042,-0.0201,-0.0233,-0.0236
1760000011980,49681,0.0167,-0.9826,0.1016,-0.0173,0.0076,0.0082
1760000012000,49946,0.0154,-0.9742,0.0915,0.0038,0.0346,-0.0106
1760000012020,50271,0.0231,-0.9801,0.0955,0.0099,-0.0034,0.0275
1760000012040,50779,0.0155,-0.9766,0.1019,-0.0042,-0.0218,0.0147
1760000012060,51082,0.0157,-0.9808,0.1013,0.0189,0.0320,0.0268
1760000012080,51344,0.0251,-0.9854,0.0993,0.0102,-0.0055,-0.0116
1760000012100,51675,0.0272,-0.9771,0.0958,0.0283,-0.0055,0.0004
1760000012120,51943,0.0206,-0.9845,0.0977,-0.0044,0.0163,-0.0364
1760000012140,52205,0.0272,-0.9859,0.0999,-0.0101,-0.0257,0.0268
1760000012160,52342,0.0277,-0.9729,0.1058,-0.0008,0.0154,0.0094
1760000012180,52413,0.0234,-0.9825,0.0995,0.0110,0.0183,0.0069
1760000012200,52421,0.0215,-0.9695,0.1005,0.0155,-0.0235,0.0075
1760000012220,52532,0.0169,-0.9797,0.0993,0.0138,0.0036,-0.0295
1760000012240,52507,0.0317,-0.9871,0.0946,-0.0106,-0.0196,-0.0207
1760000012260,52377,0.0309,-0.9750,0.0991,0.0056,0.0156,0.0120
1760000012280,52195,0.0143,-0.9853,0.1095,0.0144,0.0066,0.0168
1760000012300,51963,0.0180,-0.9796,0.0934,-0.0185,0.0052,-0.0083
1760000012320,51654,0.0160,-0.9783,0.0986,0.0267,0.0343,-0.0155
1760000012340,51568,0.0196,-0.9835,0.1039,0.0204,-0.0346,-0.0315
1760000012360,51297,0.0243,-0.9753,0.1047,-0.0129,-0.0163,-0.0163
1760000012380,50922,0.0243,-0.9887,0.0921,0.0100,-0.0198,0.0085
1760000012400,50441,0.0152,-0.9855,0.1015,0.0116,-0.0137,-0.0077
1760000012420,50125,0.0215,-0.9802,0.1006,-0.0119,-0.0010,-0.0016
1760000012440,49780,0.0213,-0.9861,0.1033,0.0251,0.0027,-0.0331
1760000012460,49523,0.0191,-0.9793,0.1006,0.0407,-0.0198,0.0017
1760000012480,49054,0.0238,-0.9759,0.1050,0.0070,0.0085,0.0090
1760000012500,48797,0.0226,-0.9821,0.1120,0.0094,-0.0528,0.0034
1760000012520,48468,0.0145,-0.9801,0.1001,-0.0129,0.0071,-0.0286
1760000012540,48287,0.0112,-0.9881,0.1011,-0.0389,0.0186,0.0152
1760000012560,48008,0.0122,-0.9778,0.0952,0.0167,0.0176,-0.0309
1760000012580,47705,0.0128,-0.9721,0.1059,-0.0232,-0.0020,-0.0605
1760000012600,47685,0.0225,-0.9849,0.1019,-0.0096,-0.0192,-0.0034
1760000012620,47548,0.0255,-0.9783,0.0984,0.0130,0.0079,0.0010
1760000012640,47539,0.0251,-0.9793,0.1055,-0.0004,-0.0079,-0.0233
1760000012660,47423,0.0332,-0.9890,0.1006,0.0055,-0.0149,-0.0201
1760000012680,47681,0.0162,-0.9797,0.0993,-0.0131,0.0025,0.0032
1760000012700,47744,0.0247,-0.9817,0.1025,-0.0330,0.0061,-0.0159
1760000012720,47899,0.0145,-0.9731,0.0970,0.0397,-0.0297,-0.0117
1760000012740,48166,0.0295,-0.9798,0.0978,-0.0081,-0.0344,-0.0333
1760000012760,48586,0.0131,-0.9820,0.1032,0.0111,0.0002,-0.0013
1760000012780,48773,0.0315,-0.9795,0.0941,-0.0317,-0.0052,0.0238
1760000012800,49016,0.0188,-0.9775,0.1013,0.0036,0.0120,0.0115
1760000012820,49337,0.0159,-0.9784,0.0944,0.0078,-0.0070,-0.0254
1760000012840,49876,0.0178,-0.9751,0.0964,0.0009,0.0219,-0.0240
1760000012860,50057,0.0269,-0.9828,0.1026,-0.0045,-0.0100,-0.0121
1760000012880,50424,0.0201,-0.9822,0.1023,-0.0027,0.0052,0.0148
1760000012900,50784,0.0191,-0.9857,0.0981,-0.0438,-0.0266,0.0001
1760000012920,51135,0.0244,-0.9801,0.0912,0.0081,0.0103,-0.0212
1760000012940,51448,0.0124,-0.9866,0.1000,0.0089,0.0147,0.0091
1760000012960,51683,0.0219,-0.9777,0.0959,0.0001,0.0163,0.0210
1760000012980,51884,0.0209,-0.9824,0.1025,0.0177,-0.0106,0.0024
1760000013000,52176,0.0219,-0.9774,0.1013,0.0006,0.0169,-0.0590
1760000013020,52149,0.0149,-0.9825,0.0982,0.0063,-0.0118,-0.0186
1760000013040,52391,0.0158,-0.9789,0.1044,0.0093,0.0128,0.0126
1760000013060,52476,0.0107,-0.9866,0.0964,0.0101,0.0083,0.0067
1760000013080,52576,0.0175,-0.9807,0.1013,-0.0027,-0.0104,-0.0335
1760000013100,52446,0.0232,-0.9894,0.0999,0.0116,0.0128,0.0119
1760000013120,52314,0.0228,-0.9763,0.1036,-0.0094,0.0051,0.0037
1760000013140,52160,0.0162,-0.9768,0.0945,0.0172,-0.0270,-0.0028
1760000013160,51987,0.0178,-0.9741,0.0987,0.0004,-0.0133,-0.0339
1760000013180,51772,0.0174,-0.9742,0.1043,-0.0176,-0.0306,-0.0047
1760000013200,51524,0.0182,-0.9719,0.0987,-0.0096,0.0076,-0.0012
1760000013220,51240,0.0186,-0.9849,0.1019,0.0027,0.0076,-0.0030
1760000013240,50967,0.0137,-0.9856,0.0953,0.0230,-0.0303,-0.0077
1760000013260,50338,0.0233,-0.9817,0.0929,0.0179,-0.0082,-0.0185
1760000013280,50129,0.0200,-0.9789,0.1026,-0.0251,0.0400,0.0343
1760000013300,49731,0.0099,-0.9745,0.0969,0.0216,-0.0038,-0.0181
1760000013320,49331,0.0093,-0.9851,0.1070,0.0393,0.0189,-0.0184
1760000013340,49046,0.0221,-0.9806,0.0876,-0.0048,-0.0112,0.0109
1760000013360,48591,0.0219,-0.9810,0.1120,0.0302,-0.0177,-0.0207
1760000013380,48392,0.0204,-0.9754,0.0956,0.0038,-0.0030,-0.0004
1760000013400,48189,0.0121,-0.9795,0.0978,-0.0020,0.0141,-0.0471
1760000013420,47836,0.0141,-0.9726,0.1072,0.0072,-0.0143,0.0120
1760000013440,47657,0.0118,-0.9753,0.0979,-0.0221,-0.0013,0.0241
1760000013460,47640,0.0195,-0.9912,0.1015,0.0248,0.0038,-0.0128
1760000013480,47512,0.0251,-0.9841,0.0912,-0.0072,0.0263,0.0478
1760000013500,47453,0.0224,-0.9846,0.0982,-0.0218,-0.0188,-0.0017
1760000013520,47660,0.0196,-0.9812,0.0997,-0.0176,0.0355,0.0350
1760000013540,47696,0.0180,-0.9792,0.0913,0.0065,0.0222,0.0072
1760000013560,47706,0.0150,-0.9819,0.1066,-0.0097,-0.0028,0.0306
1760000013580,47820,0.0090,-0.9824,0.0990,-0.0035,0.0277,-0.0106
1760000013600,48152,0.0209,-0.9799,0.0951,0.0200,0.0220,-0.0352
1760000013620,48356,0.0156,-0.9833,0.0927,0.0547,0.0069,-0.0022
1760000013640,48840,0.0195,-0.9801,0.1087,-0.0166,-0.0227,0.0117
1760000013660,48982,0.0226,-0.9859,0.0904,0.0371,0.0237,0.0122
1760000013680,49394,0.0185,-0.9761,0.0953,-0.0163,-0.0057,0.0012
1760000013700,49694,0.0152,-0.9796,0.0968,-0.0040,-0.0033,-0.0009
1760000013720,50029,0.0153,-0.9773,0.1034,-0.0354,0.0136,0.0267
1760000013740,50463,0.0210,-0.9847,0.1100,-0.0275,0.0277,-0.0012
1760000013760,50870,0.0218,-0.9788,0.1068,-0.0123,0.0174,0.0009
1760000013780,51122,0.0236,-0.9793,0.0978,-0.0118,0.0221,-0.0107
1760000013800,51378,0.0182,-0.9734,0.1027,-0.0269,-0.0163,-0.0211
1760000013820,51894,0.0124,-0.9761,0.1066,0.0002,0.0113,-0.0054
1760000013840,52006,0.0200,-0.9862,0.1069,0.0058,0.0288,0.0047
1760000013860,52134,0.0252,-0.9842,0.0958,0.0099,0.0180,0.0334
1760000013880,52366,0.0169,-0.9774,0.1010,-0.0148,0.0118,0.0313
1760000013900,52393,0.0252,-0.9708,0.1123,-0.0123,-0.0288,0.0000
1760000013920,52537,0.0183,-0.9759,0.0999,-0.0087,0.0121,-0.0091
1760000013940,52367,0.0205,-0.9765,0.1091,-0.0012,-0.0043,0.0363
1760000013960,52409,0.0149,-0.9724,0.0970,-0.0082,0.0433,-0.0222
1760000013980,52432,0.0149,-0.9797,0.1018,0.0229,-0.0171,-0.0032
1760000014000,52176,0.0262,-0.9856,0.1029,0.0033,-0.0460,-0.0270
1760000014020,51951,0.0228,-0.9781,0.0951,0.0159,0.0059,0.0237
1760000014040,51708,0.0121,-0.9759,0.0946,0.0004,-0.0286,0.0224
1760000014060,51497,0.0182,-0.9838,0.1014,-0.0184,0.0252,-0.0323
1760000014080,50986,0.0242,-0.9799,0.1032,0.0052,-0.0067,-0.0136
1760000014100,50653,0.0162,-0.9798,0.1049,0.0042,-0.0182,0.0130
1760000014120,50435,0.0239,-0.9797,0.1028,-0.0211,0.0348,0.0174
1760000014140,49981,0.0170,-0.9862,0.0952,-0.0108,-0.0089,-0.0172
1760000014160,49664,0.0233,-0.9865,0.1051,0.0337,0.0082,0.0092
1760000014180,49212,0.0185,-0.9823,0.0983,0.0090,-0.0218,-0.0001
1760000014200,48798,0.0285,-0.9887,0.1050,-0.0057,0.0124,-0.0153
1760000014220,48713,0.0178,-0.9801,0.0915,-0.0397,0.0278,0.0238
1760000014240,48338,0.0217,-0.9782,0.0870,-0.0055,-0.0355,0.0207
1760000014260,47985,0.0144,-0.9788,0.1073,0.0165,0.0413,-0.0276
1760000014280,47973,0.0182,-0.9798,0.0951,0.0076,-0.0105,0.0123
1760000014300,47736,0.0194,-0.9769,0.0918,0.0005,-0.0437,-0.0077
1760000014320,47599,0.0206,-0.9827,0.1072,0.0018,0.0040,-0.0105
1760000014340,47685,0.0193,-0.9770,0.0982,0.0227,0.0082,-0.0285
1760000014360,47559,0.0159,-0.9792,0.1032,0.0258,0.0088,-0.0088
1760000014380,47601,0.0189,-0.9790,0.0977,0.0071,0.0241,0.0350
1760000014400,47674,0.0270,-0.9845,0.1011,0.0237,-0.0044,0.0123
1760000014420,47734,0.0164,-0.9810,0.1006,-0.0069,0.0031,0.0483
1760000014440,47860,0.0188,-0.9869,0.1118,0.0229,-0.0039,-0.0106
1760000014460,48181,0.0171,-0.9785,0.0955,-0.0072,0.0210,-0.0213
1760000014480,48488,0.0127,-0.9798,0.1057,-0.0116,0.0183,0.0349
1760000014500,48825,0.0317,-0.9825,0.1009,0.0055,-0.0386,0.0067
1760000014520,48991,0.0154,-0.9787,0.1004,0.0209,-0.0091,-0.0217
1760000014540,49452,0.0154,-0.9778,0.1033,0.0099,0.0012,0.0094
1760000014560,49684,0.0232,-0.9730,0.0953,0.0049,-0.0164,-0.0074
1760000014580,50125,0.0183,-0.9760,0.0875,-0.0303,0.0129,0.0029
1760000014600,50395,0.0218,-0.9781,0.0970,0.0467,0.0010,0.0162
1760000014620,50926,0.0200,-0.9773,0.0982,-0.0225,-0.0129,0.0130
1760000014640,51338,0.0145,-0.9709,0.1031,0.0075,0.0124,-0.0277
1760000014660,51525,0.0177,-0.9807,0.1084,-0.0042,-0.0408,-0.0350
1760000014680,51893,0.0199,-0.9866,0.1028,-0.0003,-0.0050,-0.0072
1760000014700,51936,0.0178,-0.9816,0.1060,0.0069,-0.0116,0.0344
1760000014720,52318,0.0188,-0.9766,0.0982,-0.0105,0.0147,-0.0035
1760000014740,52377,0.0147,-0.9774,0.1047,-0.0032,-0.0010,0.0513
1760000014760,52457,0.0182,-0.9803,0.1042,0.0024,-0.0165,0.0277
1760000014780,52440,0.0265,-0.9872,0.0971,-0.0218,0.0112,-0.0072
1760000014800,52399,0.0174,-0.9814,0.1062,0.0044,0.0289,0.0195
1760000014820,52522,0.0114,-0.9893,0.0947,-0.0234,-0.0273,-0.0214
1760000014840,52201,0.0088,-0.9736,0.0944,0.0076,0.0025,0.0092
1760000014860,51971,0.0236,-0.9712,0.1053,0.0007,0.0011,0.0434
1760000014880,51985,0.0231,-0.9762,0.0944,0.0149,-0.0193,0.0145
1760000014900,51712,0.0162,-0.9841,0.1064,-0.0007,-0.0248,0.0111
1760000014920,51331,0.0232,-0.9814,0.1049,0.0186,-0.0048,0.0112
1760000014940,50996,0.0098,-0.9751,0.0984,-0.0167,0.0280,0.0343
1760000014960,50669,0.0279,-0.9764,0.0968,-0.0053,0.0062,0.0001
1760000014980,50323,0.0192,-0.9811,0.1051,0.0252,-0.0005,0.0057
1760000015000,50041,0.0227,-0.9766,0.0996,0.0073,0.0111,-0.0120
1760000015020,49684,0.0154,-0.9831,0.0927,-0.0146,-0.0035,-0.0036
1760000015040,49352,0.0257,-0.9834,0.0997,0.0218,-0.0162,-0.0237
1760000015060,48921,0.0268,-0.9840,0.0992,-0.0305,-0.0209,-0.0081
1760000015080,48464,0.0148,-0.9822,0.0991,-0.0108,0.0331,0.0011
1760000015100,48381,0.0236,-0.9725,0.1002,-0.0420,-0.0251,-0.0278
1760000015120,48087,0.0271,-0.9876,0.1006,0.0096,-0.0064,0.0275
1760000015140,47838,0.0240,-0.9764,0.0941,-0.0441,0.0097,-0.0268
1760000015160,47703,0.0162,-0.9775,0.0982,-0.0058,-0.0048,0.0054
1760000015180,47552,0.0238,-0.9867,0.0958,-0.0021,-0.0115,-0.0223
1760000015200,47469,0.0167,-0.9765,0.1047,-0.0038,-0.0117,0.0044
1760000015220,47393,0.0219,-0.9800,0.0891,-0.0112,0.0383,0.0119
1760000015240,47485,0.0151,-0.9863,0.1016,0.0037,-0.0005,-0.0051
1760000015260,47665,0.0229,-0.9788,0.0941,-0.0117,0.0103,0.0279
1760000015280,47871,0.0180,-0.9857,0.1081,0.0197,-0.0124,0.0319
1760000015300,48074,0.0170,-0.9808,0.1019,-0.0047,-0.0133,0.0409
1760000015320,48138,0.0155,-0.9864,0.0985,-0.0188,-0.0105,0.0009
1760000015340,48403,0.0214,-0.9860,0.0964,-0.0091,-0.0047,0.0379
1760000015360,48907,0.0069,-0.9701,0.1021,-0.0048,-0.0227,0.0348
1760000015380,49077,0.0190,-0.9879,0.0937,-0.0432,-0.0189,-0.0101
1760000015400,49484,0.0262,-0.9733,0.1033,-0.0007,0.0303,0.0020
1760000015420,49771,0.0243,-0.9824,0.1090,0.0392,-0.0092,0.0183
1760000015440,50301,0.0232,-0.9747,0.0992,-0.0205,0.0161,0.0036
1760000015460,50461,0.0201,-0.9827,0.1096,-0.0547,0.0285,0.0032
1760000015480,51002,0.0218,-0.9852,0.1076,-0.0167,0.0319,-0.0162
1760000015500,51057,0.0189,-0.9869,0.1007,0.0130,-0.0265,0.0221
1760000015520,51536,0.0161,-0.9761,0.1063,0.0028,-0.0272,0.0251
1760000015540,51870,0.0143,-0.9827,0.1002,0.0235,-0.0239,0.0078
1760000015560,52214,0.0286,-0.9836,0.1071,-0.0102,0.0099,0.0180
1760000015580,52289,0.0265,-0.9745,0.1038,-0.0008,-0.0169,-0.0015
1760000015600,52486,0.0208,-0.9821,0.0955,-0.0214,0.0099,-0.0216
1760000015620,52494,0.0197,-0.9718,0.1015,-0.0255,0.0093,0.0042
1760000015640,52469,0.0217,-0.9811,0.1097,0.0154,0.0100,-0.0233
1760000015660,52556,0.0276,-0.9832,0.0956,-0.0226,-0.0126,0.0091
1760000015680,52372,0.0156,-0.9725,0.1007,-0.0076,-0.0018,-0.0079
1760000015700,52305,0.0215,-0.9909,0.1053,-0.0062,-0.0168,0.0116
1760000015720,52175,0.0207,-0.9791,0.0943,-0.0302,0.0170,0.0058
1760000015740,51939,0.0171,-0.9771,0.1112,-0.0208,-0.0197,-0.0061
1760000015760,51772,0.0313,-0.9821,0.1069,-0.0043,-0.0026,-0.0165
1760000015780,51330,0.0083,-0.9791,0.0995,-0.0347,0.0003,-0.0197
1760000015800,50989,0.0144,-0.9766,0.0920,-0.0147,0.0081,0.0136
1760000015820,50622,0.0179,-0.9769,0.1089,-0.0132,0.0096,0.0065
1760000015840,50270,0.0261,-0.9743,0.1000,-0.0188,0.0166,0.0024
1760000015860,50045,0.0094,-0.9835,0.0957,0.0098,0.0025,-0.0007
1760000015880,49647,0.0149,-0.9840,0.0983,0.0113,-0.0399,0.0195
1760000015900,49146,0.0211,-0.9747,0.1029,0.0232,-0.0030,-0.0166
1760000015920,48960,0.0165,-0.9793,0.0939,0.0295,-0.0267,-0.0095
1760000015940,48528,0.0289,-0.9758,0.0967,0.0260,-0.0108,-0.0090
1760000015960,48296,0.0171,-0.9792,0.0985,-0.0249,0.0314,-0.0126
1760000015980,47995,0.0253,-0.9786,0.1082,-0.0035,0.0118,0.0227
1760000016000,47879,0.0130,-0.9880,0.1001,-0.0041,0.0110,-0.0122
1760000016020,47590,0.0188,-0.9892,0.1003,-0.0212,0.0027,0.0552
1760000016040,47443,0.0289,-0.9847,0.1063,-0.0201,0.0223,-0.0159
1760000016060,47405,0.0263,-0.9783,0.1053,-0.0114,-0.0067,0.0059
1760000016080,47510,0.0200,-0.9790,0.1022,-0.0167,0.0171,-0.0174
1760000016100,47605,0.0153,-0.9837,0.0992,0.0226,0.0121,0.0267
1760000016120,47772,0.0197,-0.9696,0.1055,0.0075,0.0121,-0.0090
1760000016140,47962,0.0213,-0.9809,0.0995,-0.0014,-0.0011,-0.0030
1760000016160,48082,0.0172,-0.9783,0.1045,0.0108,0.0147,-0.0071
1760000016180,48225,0.0226,-0.9864,0.0972,0.0177,-0.0021,-0.0118
1760000016200,48441,0.0200,-0.9785,0.0986,0.0059,0.0264,0.0096
1760000016220,48888,0.0207,-0.9701,0.0961,0.0186,-0.0120,-0.0058
1760000016240,49214,0.0205,-0.9884,0.1053,0.0090,-0.0219,0.0009
1760000016260,49559,0.0243,-0.9723,0.0973,-0.0183,-0.0154,-0.0038
1760000016280,49896,0.0093,-0.9786,0.0940,-0.0041,0.0141,-0.0172
1760000016300,50241,0.0123,-0.9828,0.0946,0.0130,-0.0356,-0.0255
1760000016320,50639,0.0139,-0.9744,0.1010,0.0026,0.0088,-0.0263
1760000016340,51010,0.0253,-0.9824,0.0920,-0.0107,-0.0285,0.0098
1760000016360,51342,0.0278,-0.9841,0.0942,-0.0324,-0.0250,0.0365
1760000016380,51600,0.0176,-0.9843,0.1020,-0.0223,-0.0039,0.0255
1760000016400,51869,0.0136,-0.9847,0.1014,-0.0053,0.0041,0.0174
1760000016420,52110,0.0192,-0.9855,0.0986,0.0010,0.0129,-0.0021
1760000016440,52185,0.0300,-0.9836,0.1112,-0.0017,-0.0150,-0.0035
1760000016460,52349,0.0251,-0.9843,0.0959,-0.0372,-0.0067,0.0068
1760000016480,52442,0.0151,-0.9882,0.1042,0.0021,0.0123,-0.0230
1760000016500,52437,0.0177,-0.9795,0.0918,0.0234,0.0003,-0.0130
1760000016520,52429,0.0141,-0.9756,0.0983,-0.0206,-0.0140,0.0101
1760000016540,52294,0.0204,-0.9751,0.0970,-0.0103,0.0267,0.0433
1760000016560,52274,0.0166,-0.9818,0.1026,0.0166,-0.0004,0.0285
1760000016580,52183,0.0195,-0.9807,0.0993,0.0109,-0.0240,-0.0131
1760000016600,51819,0.0192,-0.9819,0.0972,-0.0253,-0.0251,-0.0056
1760000016620,51487,0.0233,-0.9734,0.1046,0.0465,0.0075,-0.0061
1760000016640,51142,0.0145,-0.9800,0.1004,-0.0206,-0.0242,0.0122
1760000016660,50921,0.0151,-0.9812,0.0989,0.0098,0.0200,-0.0186
1760000016680,50670,0.0247,-0.9816,0.1015,-0.0095,0.0036,0.0184
1760000016700,50438,0.0259,-0.9870,0.0998,-0.0168,-0.0193,0.0243
1760000016720,49822,0.0116,-0.9799,0.0938,-0.0231,-0.0292,-0.0142
1760000016740,49558,0.0093,-0.9823,0.0975,-0.0107,-0.0183,-0.0309
1760000016760,49104,0.0125,-0.9720,0.1027,0.0372,-0.0138,-0.0020
1760000016780,48815,0.0191,-0.9815,0.1014,-0.0003,-0.0238,0.0310
1760000016800,48555,0.0228,-0.9765,0.1084,-0.0037,-0.0047,-0.0210
1760000016820,48179,0.0129,-0.9873,0.0975,-0.0211,-0.0174,-0.0179
1760000016840,48022,0.0333,-0.9799,0.1024,-0.0057,0.0111,0.0199
1760000016860,47755,0.0165,-0.9769,0.1040,-0.0092,-0.0209,0.0086
1760000016880,47649,0.0171,-0.9728,0.1029,-0.0123,0.0228,0.0113
1760000016900,47564,0.0231,-0.9712,0.0957,-0.0143,0.0010,0.0069
1760000016920,47469,0.0180,-0.9863,0.1019,0.0007,-0.0006,0.0267
1760000016940,47541,0.0270,-0.9765,0.0914,0.0243,0.0081,-0.0295
1760000016960,47597,0.0159,-0.9760,0.1030,-0.0110,0.0247,0.0163
1760000016980,47886,0.0277,-0.9803,0.0959,-0.0212,-0.0057,0.0157
1760000017000,47788,0.0199,-0.9746,0.1096,-0.0268,-0.0119,-0.0095
1760000017020,47944,0.0118,-0.9765,0.1022,-0.0022,-0.0233,0.0098
1760000017040,48200,0.0194,-0.9805,0.0926,0.0091,-0.0245,0.0202
1760000017060,48786,0.0174,-0.9896,0.0950,0.0444,0.0074,0.0068
1760000017080,48985,0.0220,-0.9865,0.1084,0.0334,0.0262,0.0166
1760000017100,49253,0.0114,-0.9765,0.0975,0.0027,-0.0096,-0.0019
1760000017120,49429,0.0136,-0.9754,0.1026,-0.0085,-0.0004,-0.0299
1760000017140,50100,0.0232,-0.9743,0.0928,0.0001,0.0118,-0.0207
1760000017160,50330,0.0086,-0.9799,0.0944,0.0089,0.0338,0.0025
1760000017180,50699,0.0199,-0.9792,0.0949,0.0078,-0.0068,-0.0119
1760000017200,51067,0.0171,-0.9720,0.1047,-0.0288,-0.0056,0.0058
1760000017220,51382,0.0212,-0.9749,0.0998,0.0345,0.0146,0.0210
1760000017240,51699,0.0183,-0.9791,0.0885,0.0051,-0.0329,0.0034
1760000017260,52005,0.0234,-0.9787,0.0977,-0.0189,0.0052,0.0001
1760000017280,52068,0.0138,-0.9783,0.0949,-0.0045,-0.0461,0.0115
1760000017300,52344,0.0251,-0.9867,0.0912,-0.0147,0.0253,-0.0036
1760000017320,52391,0.0258,-0.9810,0.1040,-0.0071,-0.0012,0.0181
1760000017340,52506,0.0245,-0.9761,0.0988,0.0311,0.0533,0.0194
1760000017360,52460,0.0239,-0.9785,0.0864,-0.0338,0.0021,0.0187
1760000017380,52499,0.0108,-0.9782,0.0954,0.0111,-0.0231,0.0065
1760000017400,52461,0.0229,-0.9824,0.1023,-0.0040,-0.0038,0.0362
1760000017420,52421,0.0146,-0.9728,0.1097,-0.0070,0.0025,-0.0085
1760000017440,52089,0.0170,-0.9791,0.1000,-0.0099,-0.0189,-0.0018
1760000017460,51895,0.0196,-0.9820,0.0999,-0.0158,-0.0436,0.0220
1760000017480,51703,0.0199,-0.9776,0.0958,-0.0250,-0.0230,0.0027
1760000017500,51375,0.0234,-0.9734,0.1121,-0.0128,0.0077,-0.0106
1760000017520,50880,0.0174,-0.9870,0.1042,0.0185,0.0236,-0.0369
1760000017540,50603,0.0119,-0.9856,0.1085,-0.0120,-0.0022,-0.0089
1760000017560,50220,0.0217,-0.9831,0.0985,-0.0083,0.0181,0.0079
1760000017580,49902,0.0181,-0.9698,0.1003,0.0100,0.0105,-0.0035
1760000017600,49548,0.0180,-0.9855,0.0962,0.0199,-0.0141,0.0180
1760000017620,49174,0.0168,-0.9748,0.0868,-0.0137,-0.0163,-0.0020
1760000017640,48725,0.0195,-0.9786,0.1018,-0.0061,-0.0097,0.0029
1760000017660,48555,0.0104,-0.9749,0.0994,0.0280,-0.0286,-0.0283
1760000017680,48097,0.0111,-0.9816,0.1006,-0.0004,-0.0002,0.0157
1760000017700,47954,0.0128,-0.9800,0.1036,0.0124,-0.0331,0.0369
1760000017720,47871,0.0275,-0.9839,0.0929,0.0082,-0.0217,0.0244
1760000017740,47614,0.0190,-0.9786,0.1043,0.0158,-0.0034,-0.0082
1760000017760,47665,0.0230,-0.9793,0.1003,-0.0460,-0.0312,-0.0385
1760000017780,47368,0.0210,-0.9721,0.0952,-0.0068,-0.0268,-0.0152
1760000017800,47580,0.0262,-0.9791,0.0986,0.0446,0.0083,-0.0112
1760000017820,47503,0.0276,-0.9783,0.1014,-0.0188,-0.0206,-0.0272
1760000017840,47790,0.0214,-0.9772,0.1063,-0.0020,0.0099,-0.0113
1760000017860,47838,0.0152,-0.9832,0.1003,-0.0153,0.0180,-0.0180
1760000017880,48121,0.0131,-0.9776,0.1027,-0.0111,0.0185,-0.0198
1760000017900,48438,0.0198,-0.9807,0.1071,-0.0154,-0.0346,-0.0166
1760000017920,48717,0.0206,-0.9798,0.0894,-0.0135,0.0472,-0.0414
1760000017940,48770,0.0098,-0.9834,0.0948,-0.0110,0.0197,-0.0235
1760000017960,49188,0.0181,-0.9845,0.1008,-0.0253,0.0164,0.0302
1760000017980,49721,0.0212,-0.9832,0.0980,-0.0260,-0.0060,-0.0037
1760000018000,50057,0.0199,-0.9695,0.0894,0.0049,-0.0188,0.0061
1760000018020,50373,0.0208,-0.9902,0.1061,-0.0225,-0.0071,0.0402
1760000018040,50614,0.0163,-0.9722,0.1059,-0.0130,0.0183,-0.0027
1760000018060,50982,0.0171,-0.9902,0.1011,-0.0018,-0.0003,-0.0564
1760000018080,51462,0.0145,-0.9792,0.1019,-0.0271,-0.0191,-0.0035
1760000018100,51661,0.0236,-0.9709,0.1047,0.0075,-0.0026,0.0208
1760000018120,52074,0.0150,-0.9818,0.1006,0.0013,0.0048,-0.0325
1760000018140,52219,0.0171,-0.9788,0.1008,0.0082,-0.0064,-0.0178
1760000018160,52411,0.0165,-0.9863,0.0988,0.0162,0.0008,-0.0030
1760000018180,52436,0.0253,-0.9803,0.0949,0.0219,0.0095,-0.0202
1760000018200,52456,0.0120,-0.9737,0.1052,0.0032,-0.0409,0.0046
1760000018220,52569,0.0129,-0.9767,0.1003,-0.0068,0.0143,0.0096
1760000018240,52593,0.0171,-0.9813,0.1016,-0.0075,0.0203,0.0134
1760000018260,52450,0.0167,-0.9807,0.1044,-0.0037,-0.0216,-0.0152
1760000018280,51993,0.0288,-0.9827,0.0960,-0.0177,-0.0083,-0.0037
1760000018300,52096,0.0214,-0.9824,0.0959,-0.0040,0.0058,-0.0068
1760000018320,51712,0.0204,-0.9874,0.1056,-0.0045,-0.0071,0.0445
1760000018340,51479,0.0227,-0.9789,0.0888,-0.0247,0.0031,0.0069
1760000018360,51163,0.0220,-0.9836,0.1029,-0.0105,-0.0065,-0.0387
1760000018380,50974,0.0209,-0.9718,0.0951,0.0195,0.0358,0.0018
1760000018400,50498,0.0161,-0.9796,0.0961,0.0119,-0.0065,0.0005
1760000018420,50135,0.0203,-0.9824,0.0993,-0.0058,-0.0138,-0.0190
1760000018440,49680,0.0206,-0.9789,0.1075,-0.0057,0.0033,0.0473
1760000018460,49404,0.0257,-0.9784,0.0981,-0.0107,-0.0082,-0.0085
1760000018480,49083,0.0210,-0.9899,0.0896,-0.0159,0.0107,-0.0057
1760000018500,48790,0.0166,-0.9731,0.0970,-0.0130,-0.0384,0.0116
1760000018520,48541,0.0295,-0.9809,0.0943,0.0356,-0.0172,0.0105
1760000018540,48281,0.0120,-0.9750,0.1047,0.0153,0.0321,0.0091
1760000018560,47968,0.0262,-0.9829,0.0912,-0.0159,0.0087,0.0373
1760000018580,47666,0.0114,-0.9739,0.1034,-0.0082,0.0020,-0.0026
1760000018600,47597,0.0205,-0.9881,0.0964,-0.0087,-0.0238,0.0119
1760000018620,47545,0.0270,-0.9822,0.0993,0.0007,-0.0367,-0.0116
1760000018640,47515,0.0261,-0.9872,0.0995,-0.0314,-0.0205,0.0306
1760000018660,47496,0.0186,-0.9856,0.0960,0.0277,0.0035,0.0146
1760000018680,47497,0.0112,-0.9779,0.1036,0.0120,0.0065,0.0073
1760000018700,47704,0.0202,-0.9886,0.0998,0.0189,0.0168,0.0205
1760000018720,47891,0.0220,-0.9830,0.0994,0.0232,0.0092,0.0657
1760000018740,48181,0.0138,-0.9823,0.0949,0.0029,-0.0082,-0.0053
1760000018760,48328,0.0104,-0.9883,0.0998,0.0007,-0.0295,-0.0017
1760000018780,48792,0.0181,-0.9712,0.0983,0.0228,-0.0275,-0.0007
1760000018800,49006,0.0212,-0.9765,0.0975,0.0285,-0.0029,-0.0182
1760000018820,49403,0.0148,-0.9981,0.1072,-0.0311,0.0331,-0.0001
1760000018840,49630,0.0199,-0.9774,0.0972,-0.0251,0.0149,0.0046
1760000018860,50087,0.0190,-0.9853,0.0987,-0.0333,0.0184,-0.0021
1760000018880,50468,0.0230,-0.9771,0.0994,-0.0017,-0.0218,0.0116
1760000018900,50621,0.0136,-0.9799,0.0990,0.0082,0.0122,0.0087
1760000018920,51121,0.0323,-0.9708,0.1026,0.0540,0.0221,-0.0068
1760000018940,51364,0.0141,-0.9857,0.1014,-0.0098,0.0294,-0.0156
1760000018960,51738,0.0191,-0.9720,0.0966,0.0153,0.0305,-0.0055
1760000018980,51876,0.0183,-0.9835,0.1027,0.0173,0.0077,-0.0102
1760000019000,52171,0.0256,-0.9885,0.0925,-0.0125,-0.0104,-0.0135
1760000019020,52432,0.0304,-0.9853,0.0964,-0.0073,0.0075,-0.0108
1760000019040,52486,0.0175,-0.9793,0.1009,-0.0171,0.0072,-0.0080
1760000019060,52335,0.0095,-0.9749,0.1047,-0.0006,0.0035,0.0067
1760000019080,52490,0.0245,-0.9757,0.0998,0.0272,0.0404,-0.0232
1760000019100,52377,0.0221,-0.9852,0.1012,-0.0272,0.0022,0.0013
1760000019120,52345,0.0191,-0.9793,0.0953,0.0052,-0.0031,0.0417
1760000019140,52244,0.0226,-0.9719,0.1023,0.0244,0.0078,0.0234
1760000019160,51977,0.0136,-0.9772,0.0967,-0.0270,-0.0079,0.0260
1760000019180,51694,0.0256,-0.9792,0.1044,0.0014,0.0155,-0.0108
1760000019200,51316,0.0260,-0.9807,0.0977,0.0292,-0.0024,0.0269
1760000019220,51054,0.0230,-0.9801,0.1009,0.0018,-0.0004,-0.0000
1760000019240,50824,0.0173,-0.9789,0.0959,-0.0070,0.0011,0.0005
1760000019260,50471,0.0189,-0.9808,0.1037,0.0133,0.0238,-0.0052
1760000019280,50045,0.0179,-0.9789,0.1000,-0.0559,-0.0109,-0.0106
1760000019300,49690,0.0117,-0.9705,0.1025,0.0419,-0.0289,0.0138
1760000019320,49353,0.0200,-0.9737,0.1066,-0.0204,-0.0203,0.0361
1760000019340,48971,0.0104,-0.9727,0.0932,0.0009,0.0183,0.0251
1760000019360,48705,0.0218,-0.9819,0.0996,0.0505,-0.0212,0.0001
1760000019380,48360,0.0152,-0.9796,0.1065,-0.0220,-0.0116,0.0378
1760000019400,48174,0.0237,-0.9763,0.1007,-0.0005,-0.0080,-0.0103
1760000019420,48058,0.0296,-0.9732,0.1016,0.0333,-0.0141,0.0167
1760000019440,47693,0.0256,-0.9850,0.1018,-0.0096,-0.0016,-0.0125
1760000019460,47571,0.0152,-0.9789,0.1037,0.0104,-0.0020,-0.0021
1760000019480,47609,0.0299,-0.9811,0.1005,-0.0035,-0.0302,-0.0046
1760000019500,47487,0.0212,-0.9800,0.0969,-0.0180,0.0134,-0.0206
1760000019520,47406,0.0223,-0.9729,0.1038,0.0179,-0.0112,-0.0212
1760000019540,47611,0.0145,-0.9756,0.0928,-0.0137,-0.0059,-0.0072
1760000019560,47748,0.0137,-0.9734,0.1097,0.0072,0.0322,-0.0179
1760000019580,48025,0.0185,-0.9818,0.0941,-0.0163,-0.0469,0.0021
1760000019600,48256,0.0217,-0.9752,0.1034,0.0219,0.0332,-0.0106
1760000019620,48463,0.0226,-0.9739,0.1016,0.0272,-0.0093,-0.0024
1760000019640,48728,0.0221,-0.9727,0.1021,-0.0280,-0.0037,-0.0325
1760000019660,48957,0.0150,-0.9908,0.0964,-0.0294,-0.0093,-0.0034
1760000019680,49322,0.0186,-0.9859,0.1033,0.0090,0.0154,0.0117
1760000019700,49587,0.0201,-0.9831,0.0933,0.0290,0.0180,-0.0233
1760000019720,50245,0.0138,-0.9771,0.0889,-0.0359,0.0201,0.0148
1760000019740,50557,0.0160,-0.9841,0.0991,0.0285,-0.0259,-0.0009
1760000019760,50825,0.0141,-0.9883,0.1009,0.0232,-0.0243,0.0174
1760000019780,51053,0.0238,-0.9804,0.1020,0.0093,-0.0029,-0.0084
1760000019800,51633,0.0238,-0.9816,0.0994,-0.0223,0.0003,0.0230
1760000019820,51763,0.0183,-0.9721,0.0905,0.0051,-0.0105,0.0262
1760000019840,52107,0.0104,-0.9785,0.1158,0.0475,0.0220,-0.0033
1760000019860,52126,0.0206,-0.9822,0.1002,-0.0108,-0.0074,0.0092
1760000019880,52333,0.0064,-0.9664,0.1105,0.0048,0.0138,-0.0039
1760000019900,52428,0.0149,-0.9711,0.0966,0.0133,-0.0240,-0.0201
1760000019920,52499,0.0144,-0.9818,0.0959,0.0007,-0.0039,-0.0105
1760000019940,52489,0.0294,-0.9788,0.1001,0.0334,0.0302,-0.0032
1760000019960,52396,0.0030,-0.9884,0.0899,-0.0304,0.0301,-0.0575
1760000019980,52289,0.0211,-0.9767,0.0967,0.0319,-0.0057,-0.0356
1760000020000,52159,0.0250,-0.9839,0.1085,0.0093,0.0288,-0.0113
1760000020020,51970,0.0169,-0.9770,0.1004,0.0224,-0.0072,-0.0535
1760000020040,51784,0.0189,-0.9749,0.0907,-0.0113,0.0185,-0.0138
1760000020060,51316,0.0173,-0.9851,0.0993,-0.0065,-0.0086,0.0021
1760000020080,51288,0.0144,-0.9782,0.1029,0.0089,0.0145,-0.0372
1760000020100,50892,0.0226,-0.9737,0.1071,0.0024,-0.0008,-0.0157
1760000020120,50387,0.0193,-0.9759,0.0972,-0.0496,-0.0233,0.0128
1760000020140,50065,0.0065,-0.9777,0.1009,0.0173,-0.0239,0.0020
1760000020160,49671,0.0162,-0.9773,0.1043,0.0275,-0.0291,0.0055
1760000020180,49275,0.0155,-0.9770,0.0989,-0.0193,0.0130,0.0001
1760000020200,48961,0.0219,-0.9745,0.1013,0.0108,0.0277,-0.0119
1760000020220,48769,0.0166,-0.9801,0.1035,-0.0405,-0.0258,-0.0044
1760000020240,48359,0.0324,-0.9795,0.1007,0.0017,-0.0354,-0.0117
1760000020260,48077,0.0212,-0.9776,0.1024,0.0180,-0.0008,-0.0005
1760000020280,47756,0.0154,-0.9754,0.0895,0.0010,-0.0139,0.0288
1760000020300,47779,0.0096,-0.9776,0.1055,0.0408,0.0038,-0.0006
1760000020320,47460,0.0250,-0.9857,0.0967,0.0038,0.0083,-0.0329
1760000020340,47453,0.0191,-0.9832,0.0992,-0.0004,0.0205,-0.0427
1760000020360,47506,0.0138,-0.9781,0.1056,-0.0219,0.0161,-0.0082
1760000020380,47333,0.0161,-0.9760,0.0983,0.0011,-0.0152,0.0267
1760000020400,47623,0.0226,-0.9829,0.1022,-0.0059,0.0183,0.0120
1760000020420,47718,0.0195,-0.9828,0.0934,-0.0066,-0.0204,0.0029
1760000020440,47944,0.0192,-0.9830,0.0970,0.0205,0.0069,-0.0041
1760000020460,48186,0.0193,-0.9764,0.1047,0.0244,-0.0198,0.0153
1760000020480,48408,0.0120,-0.9795,0.0952,-0.0276,0.0021,-0.0081
1760000020500,48769,0.0227,-0.9785,0.1122,0.0045,0.0213,0.0122
1760000020520,49033,0.0186,-0.9863,0.0989,0.0106,-0.0071,0.0079
1760000020540,49425,0.0203,-0.9798,0.1006,-0.0189,-0.0029,-0.0263
1760000020560,49829,0.0228,-0.9858,0.1112,0.0200,-0.0143,-0.0164
1760000020580,50083,0.0250,-0.9819,0.0902,-0.0216,0.0038,0.0054
1760000020600,50568,0.0186,-0.9919,0.1007,0.0066,0.0191,-0.0133
1760000020620,50950,0.0271,-0.9867,0.1006,0.0129,-0.0025,-0.0025
1760000020640,51257,0.0248,-0.9812,0.0943,-0.0012,0.0102,0.0167
1760000020660,51543,0.0217,-0.9750,0.0967,0.0083,-0.0447,-0.0055
1760000020680,51771,0.0209,-0.9800,0.0967,-0.0282,0.0190,-0.0052
1760000020700,52146,0.0235,-0.9731,0.0956,0.0245,0.0262,-0.0025
1760000020720,52156,0.0238,-0.9817,0.1019,0.0131,0.0046,-0.0143
1760000020740,52312,0.0138,-0.9823,0.1038,-0.0066,-0.0195,-0.0077
1760000020760,52510,0.0166,-0.9779,0.0979,0.0077,0.0172,-0.0084
1760000020780,52414,0.0147,-0.9854,0.1016,0.0164,0.0184,-0.0274
1760000020800,52332,0.0246,-0.9848,0.1020,0.0117,0.0064,0.0043
1760000020820,52436,0.0203,-0.9804,0.1019,-0.0425,0.0018,0.0272
1760000020840,52279,0.0170,-0.9794,0.0990,0.0021,-0.0279,-0.0032
1760000020860,52098,0.0071,-0.9758,0.0957,0.0315,0.0031,-0.0065
1760000020880,51897,0.0253,-0.9765,0.1055,0.0042,0.0161,-0.0222
1760000020900,51618,0.0191,-0.9761,0.0883,-0.0157,0.0092,-0.0075
1760000020920,51278,0.0189,-0.9648,0.0956,-0.0065,0.0191,0.0014
1760000020940,51113,0.0272,-0.9667,0.0964,-0.0040,0.0023,0.0111
1760000020960,50714,0.0181,-0.9768,0.0930,0.0128,0.0113,0.0204
1760000020980,50371,0.0297,-0.9815,0.1064,0.0094,0.0136,0.0148
1760000021000,50042,0.0174,-0.9870,0.1013,0.0084,0.0536,-0.0206
1760000021020,49622,0.0138,-0.9784,0.0986,0.0279,-0.0363,-0.0030
1760000021040,49312,0.0185,-0.9865,0.0987,-0.0250,-0.0029,0.0024
1760000021060,48954,0.0244,-0.9845,0.0875,-0.0424,-0.0191,0.0372
1760000021080,48533,0.0142,-0.9769,0.1000,0.0076,-0.0220,0.0150
1760000021100,48319,0.0215,-0.9742,0.1018,-0.0190,-0.0078,-0.0385
1760000021120,48084,0.0214,-0.9743,0.1013,0.0126,0.0119,0.0170
1760000021140,47777,0.0214,-0.9844,0.1026,0.0427,0.0085,0.0138
1760000021160,47783,0.0139,-0.9809,0.1010,0.0028,0.0120,-0.0084
1760000021180,47535,0.0250,-0.9796,0.1073,-0.0086,0.0290,-0.0250
1760000021200,47421,0.0157,-0.9800,0.0909,0.0041,-0.0056,-0.0395
1760000021220,47611,0.0215,-0.9848,0.0989,0.0124,-0.0294,-0.0256
1760000021240,47566,0.0203,-0.9849,0.1013,-0.0363,-0.0106,0.0087
1760000021260,47493,0.0133,-0.9848,0.1066,-0.0151,0.0218,0.0261
1760000021280,47743,0.0116,-0.9831,0.0967,-0.0028,0.0025,-0.0502
1760000021300,48018,0.0294,-0.9791,0.1035,-0.0059,-0.0314,0.0214
1760000021320,48178,0.0182,-0.9771,0.1015,0.0123,-0.0226,0.0279
1760000021340,48436,0.0228,-0.9839,0.0994,-0.0139,0.0226,0.0151
1760000021360,48964,0.0064,-0.9865,0.1093,0.0210,-0.0002,-0.0251
1760000021380,49190,0.0281,-0.9759,0.0952,-0.0207,0.0184,-0.0198
1760000021400,49459,0.0229,-0.9754,0.0989,-0.0087,-0.0173,0.0178
1760000021420,50050,0.0172,-0.9743,0.1105,-0.0246,0.0110,0.0069
1760000021440,50110,0.0221,-0.9785,0.1042,-0.0348,0.0140,-0.0074
1760000021460,50662,0.0257,-0.9773,0.1031,0.0127,-0.0331,0.0287
1760000021480,50899,0.0175,-0.9802,0.1038,-0.0047,-0.0186,-0.0246
1760000021500,51161,0.0181,-0.9744,0.1026,-0.0152,0.0113,-0.0008
1760000021520,51405,0.0201,-0.9751,0.1010,-0.0076,-0.0200,0.0072
1760000021540,51797,0.0230,-0.9843,0.1025,-0.0186,-0.0054,0.0048
1760000021560,52103,0.0269,-0.9793,0.1031,-0.0041,-0.0349,0.0037
1760000021580,52317,0.0184,-0.9844,0.0977,-0.0064,-0.0243,-0.0412
1760000021600,52398,0.0164,-0.9799,0.1089,0.0050,-0.0058,0.0133
1760000021620,52457,0.0122,-0.9767,0.1028,-0.0135,0.0198,-0.0075
1760000021640,52543,0.0216,-0.9764,0.0991,-0.0226,0.0296,-0.0457
1760000021660,52390,0.0211,-0.9828,0.0918,0.0100,0.0004,-0.0554
1760000021680,52468,0.0207,-0.9808,0.1022,0.0107,-0.0081,-0.0139
1760000021700,52297,0.0285,-0.9785,0.1029,-0.0191,-0.0273,0.0086
1760000021720,52040,0.0220,-0.9780,0.0993,0.0215,-0.0201,-0.0075
1760000021740,51915,0.0248,-0.9871,0.0970,0.0160,-0.0462,0.0038
1760000021760,51541,0.0127,-0.9778,0.1026,-0.0003,-0.0033,0.0318
1760000021780,51336,0.0250,-0.9830,0.0943,0.0342,0.0116,0.0073
1760000021800,50980,0.0134,-0.9887,0.0973,-0.0005,0.0315,0.0287
1760000021820,50751,0.0250,-0.9812,0.1036,-0.0210,0.0125,0.0184
1760000021840,50323,0.0243,-0.9878,0.0973,0.0173,0.0181,-0.0252
1760000021860,50026,0.0270,-0.9943,0.1008,-0.0044,-0.0013,-0.0051
1760000021880,49655,0.0185,-0.9746,0.1015,-0.0035,-0.0218,-0.0251
1760000021900,49225,0.0131,-0.9753,0.1000,0.0082,0.0326,-0.0128
1760000021920,48841,0.0267,-0.9733,0.1024,-0.0061,0.0125,-0.0131
1760000021940,48599,0.0199,-0.9795,0.1012,0.0198,-0.0064,0.0194
1760000021960,48182,0.0205,-0.9799,0.0991,-0.0433,0.0145,-0.0318
1760000021980,48105,0.0210,-0.9753,0.0887,0.0187,-0.0201,-0.0303
1760000022000,47729,0.0177,-0.9766,0.1005,-0.0003,-0.0193,0.0304
1760000022020,47707,0.0265,-0.9772,0.1095,0.0245,0.0012,0.0086
1760000022040,47617,0.0234,-0.9807,0.1059,-0.0030,-0.0017,0.0013
1760000022060,47444,0.0256,-0.9750,0.0982,0.0375,0.0198,-0.0120
1760000022080,47399,0.0184,-0.9775,0.1077,0.0125,0.0227,0.0482
1760000022100,47543,0.0286,-0.9759,0.0979,0.0414,0.0121,-0.0058
1760000022120,47554,0.0257,-0.9871,0.1076,-0.0163,0.0191,0.0229
1760000022140,47904,0.0240,-0.9738,0.1027,0.0002,0.0077,0.0244
1760000022160,48137,0.0226,-0.9761,0.1041,0.0163,0.0113,-0.0240
1760000022180,48342,0.0179,-0.9816,0.0958,-0.0010,-0.0288,-0.0147
1760000022200,48446,0.0290,-0.9816,0.0936,0.0293,0.0175,-0.0258
1760000022220,48698,0.0230,-0.9719,0.1050,-0.0081,0.0037,-0.0007
1760000022240,49231,0.0118,-0.9715,0.0959,0.0224,0.0172,0.0448
1760000022260,49556,0.0113,-0.9829,0.0968,-0.0090,0.0320,-0.0186
1760000022280,49947,0.0205,-0.9748,0.1099,0.0137,0.0130,-0.0154
1760000022300,50161,0.0176,-0.9737,0.1003,0.0063,0.0022,0.0208
1760000022320,50626,0.0227,-0.9744,0.1002,-0.0487,0.0025,0.0251
1760000022340,51103,0.0115,-0.9781,0.0977,-0.0250,-0.0231,-0.0184
1760000022360,51165,0.0247,-0.9731,0.0954,-0.0160,0.0163,0.0180
1760000022380,51597,0.0237,-0.9773,0.1094,0.0109,0.0101,-0.0079
1760000022400,51833,0.0166,-0.9805,0.0974,0.0268,-0.0005,0.0252
1760000022420,52108,0.0178,-0.9747,0.0963,-0.0275,-0.0046,0.0146
1760000022440,52246,0.0258,-0.9827,0.1026,0.0101,-0.0153,-0.0094
1760000022460,52490,0.0165,-0.9818,0.0983,-0.0048,-0.0482,0.0012
1760000022480,52607,0.0183,-0.9844,0.1045,-0.0222,-0.0114,-0.0381
1760000022500,52392,0.0087,-0.9783,0.0962,0.0337,-0.0141,-0.0016
1760000022520,52625,0.0142,-0.9838,0.1049,-0.0122,-0.0009,0.0222
1760000022540,52323,0.0205,-0.9866,0.1003,0.0049,-0.0085,-0.0097
1760000022560,52193,0.0211,-0.9776,0.0964,0.0062,0.0131,-0.0201
1760000022580,52128,0.0174,-0.9801,0.0992,-0.0018,-0.0401,0.0087
1760000022600,51816,0.0192,-0.9749,0.1004,0.0062,-0.0149,-0.0241
1760000022620,51735,0.0134,-0.9773,0.0944,0.0015,-0.0282,0.0011
1760000022640,51262,0.0190,-0.9830,0.1047,-0.0081,-0.0181,-0.0059
1760000022660,50987,0.0247,-0.9745,0.1031,0.0016,-0.0291,-0.0270
1760000022680,50694,0.0177,-0.9810,0.0955,-0.0198,-0.0036,0.0207
1760000022700,50335,0.0195,-0.9794,0.1020,0.0327,0.0229,0.0123
1760000022720,49871,0.0220,-0.9823,0.0980,0.0119,0.0463,-0.0218
1760000022740,49515,0.0150,-0.9795,0.1026,0.0012,0.0067,0.0130
1760000022760,49096,0.0311,-0.9769,0.0959,0.0183,0.0218,-0.0027
1760000022780,48916,0.0211,-0.9756,0.1041,-0.0009,-0.0011,0.0041
1760000022800,48469,0.0244,-0.9796,0.0932,0.0067,0.0595,-0.0234
1760000022820,48214,0.0224,-0.9748,0.0969,-0.0040,0.0103,0.0238
1760000022840,47968,0.0254,-0.9803,0.0917,0.0128,0.0362,0.0182
1760000022860,47664,0.0212,-0.9729,0.1004,0.0318,-0.0394,-0.0192
1760000022880,47594,0.0165,-0.9765,0.0946,-0.0214,0.0204,-0.0063
1760000022900,47422,0.0227,-0.9814,0.0978,0.0077,0.0087,-0.0048
1760000022920,47407,0.0189,-0.9816,0.0974,0.0009,0.0073,-0.0031
1760000022940,47534,0.0220,-0.9780,0.1052,-0.0271,-0.0159,0.0120
1760000022960,47797,0.0135,-0.9778,0.0980,0.0087,0.0243,-0.0021
1760000022980,47753,0.0255,-0.9785,0.1020,-0.0017,0.0021,-0.0416
1760000023000,47872,0.0174,-0.9802,0.0998,-0.0002,-0.0147,-0.0027
1760000023020,47988,0.0161,-0.9793,0.1044,0.0278,-0.0033,0.0196
1760000023040,48433,0.0194,-0.9814,0.1014,-0.0205,-0.0058,0.0101
1760000023060,48573,0.0209,-0.9776,0.0957,-0.0236,-0.0089,-0.0080
1760000023080,49003,0.0204,-0.9811,0.1011,-0.0165,-0.0187,0.0161
1760000023100,49320,0.0077,-0.9784,0.1050,-0.0007,0.0480,0.0344
1760000023120,49526,0.0212,-0.9824,0.0981,0.0199,-0.0086,0.0282
1760000023140,49929,0.0237,-0.9703,0.0951,0.0092,0.0262,0.0134
1760000023160,50400,0.0279,-0.9830,0.1013,-0.0071,0.0058,-0.0322
1760000023180,50727,0.0258,-0.9920,0.1003,-0.0263,-0.0028,0.0127
1760000023200,51146,0.0223,-0.9800,0.1059,0.0318,0.0192,0.0027
1760000023220,51297,0.0227,-0.9784,0.0948,0.0012,0.0406,0.0107
1760000023240,51708,0.0166,-0.9791,0.1029,0.0067,0.0391,-0.0237
1760000023260,51973,0.0178,-0.9865,0.0928,0.0207,-0.0074,-0.0390
1760000023280,52212,0.0159,-0.9763,0.1013,0.0130,0.0049,0.0062
1760000023300,52393,0.0205,-0.9787,0.0970,0.0314,-0.0177,-0.0171
1760000023320,52426,0.0198,-0.9812,0.0975,0.0157,0.0239,0.0379
1760000023340,52526,0.0202,-0.9767,0.1037,0.0029,0.0015,0.0111
1760000023360,52594,0.0222,-0.9812,0.1005,0.0280,-0.0178,0.0048
1760000023380,52567,0.0276,-0.9813,0.0978,0.0451,-0.0113,0.0122
1760000023400,52488,0.0255,-0.9850,0.0992,-0.0251,-0.0095,0.0180
1760000023420,52153,0.0261,-0.9749,0.0978,0.0502,0.0347,0.0101
1760000023440,52092,0.0267,-0.9864,0.0932,0.0383,-0.0084,0.0289
1760000023460,51859,0.0312,-0.9821,0.0971,0.0035,0.0326,-0.0371
1760000023480,51574,0.0224,-0.9764,0.0996,0.0108,0.0108,0.0124
1760000023500,51250,0.0299,-0.9765,0.0995,-0.0059,0.0014,0.0017
1760000023520,50823,0.0101,-0.9792,0.1002,0.0024,0.0051,0.0219
1760000023540,50596,0.0252,-0.9817,0.0993,0.0228,0.0240,-0.0359
1760000023560,50235,0.0138,-0.9827,0.0977,0.0017,-0.0206,0.0342
1760000023580,49863,0.0188,-0.9852,0.0992,-0.0197,0.0075,0.0100
1760000023600,49512,0.0239,-0.9785,0.1075,0.0268,0.0190,0.0042
1760000023620,49119,0.0238,-0.9821,0.0956,-0.0308,0.0190,0.0202
1760000023640,48721,0.0266,-0.9782,0.0976,-0.0185,0.0110,0.0092
1760000023660,48555,0.0206,-0.9839,0.1126,-0.0105,-0.0114,0.0149
1760000023680,48188,0.0175,-0.9836,0.0981,0.0112,0.0218,-0.0011
1760000023700,48037,0.0177,-0.9825,0.0966,-0.0268,-0.0168,-0.0245
1760000023720,47765,0.0228,-0.9803,0.1003,0.0269,0.0021,0.0019
1760000023740,47410,0.0163,-0.9914,0.1108,-0.0027,-0.0244,-0.0529
1760000023760,47635,0.0233,-0.9780,0.1012,0.0080,0.0171,0.0106
1760000023780,47465,0.0165,-0.9762,0.0949,-0.0063,0.0199,-0.0305
1760000023800,47599,0.0169,-0.9730,0.0965,0.0005,-0.0222,-0.0177
1760000023820,47543,0.0134,-0.9717,0.1043,0.0135,0.0258,0.0230
1760000023840,47716,0.0144,-0.9831,0.1008,0.0086,-0.0174,-0.0004
1760000023860,47781,0.0187,-0.9801,0.0980,-0.0013,-0.0320,-0.0309
1760000023880,48166,0.0205,-0.9836,0.1086,0.0080,-0.0094,-0.0072
1760000023900,48379,0.0241,-0.9792,0.1010,-0.0018,0.0298,-0.0019
1760000023920,48511,0.0223,-0.9817,0.1041,0.0247,0.0265,0.0331
1760000023940,48896,0.0136,-0.9824,0.1030,-0.0129,-0.0077,-0.0098
1760000023960,49301,0.0199,-0.9797,0.0991,-0.0558,-0.0198,0.0191
1760000023980,49725,0.0262,-0.9803,0.0963,0.0045,-0.0047,0.0081
1760000024000,49900,0.0234,-0.9813,0.1006,-0.0398,-0.0365,0.0176
1760000024020,50294,0.0225,-0.9799,0.0890,0.0373,-0.0047,-0.0160
1760000024040,50653,0.0219,-0.9850,0.1019,0.0229,0.0136,-0.0048
1760000024060,51128,0.0268,-0.9770,0.1060,0.0181,-0.0037,-0.0243
1760000024080,51394,0.0114,-0.9795,0.0969,0.0301,-0.0386,-0.0037
1760000024100,51671,0.0234,-0.9933,0.0945,-0.0100,0.0186,0.0121
1760000024120,51943,0.0247,-0.9772,0.1023,0.0514,-0.0231,0.0266
1760000024140,52320,0.0211,-0.9763,0.1061,-0.0122,-0.0004,0.0062
1760000024160,52262,0.0251,-0.9815,0.1005,-0.0185,0.0041,-0.0074
1760000024180,52465,0.0211,-0.9827,0.1085,-0.0218,0.0122,-0.0166
1760000024200,52475,0.0275,-0.9813,0.0978,0.0051,0.0323,-0.0108
1760000024220,52505,0.0144,-0.9822,0.0975,0.0130,0.0004,-0.0119
1760000024240,52359,0.0266,-0.9797,0.1015,-0.0011,0.0180,0.0066
1760000024260,52421,0.0162,-0.9831,0.1023,0.0297,-0.0192,0.0240
1760000024280,52150,0.0202,-0.9771,0.0974,-0.0273,0.0100,0.0021
1760000024300,51969,0.0134,-0.9740,0.0977,-0.0034,-0.0260,0.0222
1760000024320,51791,0.0218,-0.9731,0.1015,-0.0205,-0.0249,0.0061
1760000024340,51390,0.0293,-0.9815,0.0975,0.0322,-0.0012,0.0292
1760000024360,51139,0.0172,-0.9702,0.1022,0.0363,-0.0063,-0.0010
1760000024380,50894,0.0206,-0.9836,0.1058,-0.0225,-0.0077,-0.0165
1760000024400,50277,0.0245,-0.9799,0.0951,0.0206,0.0142,0.0284
1760000024420,50115,0.0205,-0.9888,0.1103,-0.0174,-0.0034,0.0013
1760000024440,49773,0.0206,-0.9757,0.0991,0.0138,0.0335,0.0021
1760000024460,49339,0.0127,-0.9790,0.0950,-0.0282,-0.0027,-0.0119
1760000024480,48978,0.0160,-0.9858,0.1080,-0.0067,0.0121,0.0073
1760000024500,48778,0.0135,-0.9824,0.1031,0.0151,0.0203,-0.0283
1760000024520,48373,0.0213,-0.9867,0.0980,-0.0158,-0.0289,0.0195
1760000024540,48155,0.0219,-0.9807,0.0956,-0.0067,0.0158,0.0169
1760000024560,47884,0.0224,-0.9757,0.1017,0.0018,0.0062,-0.0104
1760000024580,47709,0.0150,-0.9809,0.1014,-0.0019,0.0387,0.0117
1760000024600,47637,0.0102,-0.9814,0.0934,-0.0210,0.0182,-0.0125
1760000024620,47607,0.0139,-0.9733,0.1072,0.0281,0.0028,-0.0070
1760000024640,47518,0.0204,-0.9696,0.1074,-0.0354,0.0230,-0.0128
1760000024660,47489,0.0164,-0.9806,0.1055,-0.0010,-0.0030,0.0012
1760000024680,47611,0.0113,-0.9778,0.1073,0.0114,-0.0133,-0.0010
1760000024700,47872,0.0125,-0.9922,0.0995,-0.0075,-0.0357,-0.0087
1760000024720,47935,0.0245,-0.9765,0.0997,0.0195,0.0013,0.0195
1760000024740,48143,0.0185,-0.9820,0.0943,0.0004,0.0101,-0.0072
1760000024760,48220,0.0159,-0.9804,0.1043,0.0255,-0.0164,0.0075
1760000024780,48863,0.0103,-0.9869,0.0984,0.0302,-0.0204,0.0146
1760000024800,48838,0.0220,-0.9832,0.0988,0.0351,-0.0371,0.0061
1760000024820,49281,0.0168,-0.9718,0.1016,0.0033,-0.0010,0.0137
1760000024840,49583,0.0273,-0.9877,0.0895,-0.0070,0.0019,-0.0115
1760000024860,50022,0.0173,-0.9796,0.1014,-0.0037,0.0048,-0.0128
1760000024880,50514,0.0124,-0.9781,0.1071,0.0006,-0.0106,0.0055
1760000024900,50687,0.0232,-0.9858,0.0968,0.0036,-0.0067,0.0056
1760000024920,51035,0.0262,-0.9827,0.1050,-0.0013,0.0222,0.0138
1760000024940,51375,0.0205,-0.9778,0.1069,-0.0336,0.0204,-0.0273
1760000024960,51714,0.0149,-0.9821,0.1110,0.0055,0.0253,-0.0031
1760000024980,52033,0.0272,-0.9796,0.0952,0.0412,-0.0060,-0.0246
1760000025000,52199,0.0211,-0.9902,0.1063,0.0064,-0.0011,0.0240
1760000025020,52166,0.0305,-0.9764,0.0973,0.0188,0.0221,0.0012
1760000025040,52405,0.0143,-0.9852,0.0934,-0.0294,0.0204,-0.0175
1760000025060,52391,0.0289,-0.9804,0.1073,0.0210,-0.0297,0.0268
1760000025080,52543,0.0239,-0.9770,0.0962,-0.0221,-0.0200,-0.0248
1760000025100,52384,0.0195,-0.9857,0.1026,-0.0058,-0.0208,-0.0219
1760000025120,52349,0.0217,-0.9855,0.1060,-0.0246,-0.0152,0.0262
1760000025140,52167,0.0249,-0.9782,0.0914,0.0071,-0.0077,-0.0422
1760000025160,51983,0.0230,-0.9885,0.0931,-0.0385,0.0089,0.0089
1760000025180,51785,0.0199,-0.9831,0.1066,-0.0390,-0.0048,-0.0236
1760000025200,51398,0.0126,-0.9781,0.0953,0.0079,-0.0017,-0.0151
1760000025220,51221,0.0150,-0.9815,0.1082,0.0251,-0.0010,-0.0028
1760000025240,50798,0.0139,-0.9880,0.1036,-0.0056,0.0039,-0.0124
1760000025260,50401,0.0265,-0.9775,0.0888,0.0001,-0.0292,0.0140
1760000025280,50089,0.0171,-0.9820,0.0990,0.0413,-0.0223,0.0176
1760000025300,49778,0.0230,-0.9823,0.0946,-0.0197,0.0160,-0.0145
1760000025320,49355,0.0171,-0.9794,0.1023,-0.0346,0.0184,-0.0115
1760000025340,48981,0.0225,-0.9805,0.0980,0.0411,0.0030,-0.0018
1760000025360,48695,0.0186,-0.9737,0.0960,-0.0089,-0.0011,0.0251
1760000025380,48327,0.0158,-0.9788,0.0996,0.0269,0.0071,0.0464
1760000025400,48056,0.0117,-0.9753,0.1080,0.0098,-0.0134,0.0234
1760000025420,48094,0.0127,-0.9785,0.1063,-0.0153,0.0182,0.0012
1760000025440,47864,0.0224,-0.9822,0.1052,-0.0242,0.0007,0.0432
1760000025460,47681,0.0227,-0.9808,0.1109,0.0152,-0.0243,0.0253
1760000025480,47530,0.0238,-0.9805,0.0953,-0.0400,0.0024,-0.0179
1760000025500,47501,0.0220,-0.9848,0.0991,0.0199,-0.0080,-0.0031
1760000025520,47544,0.0246,-0.9773,0.1016,-0.0233,0.0017,-0.0130
1760000025540,47541,0.0147,-0.9737,0.1005,0.0241,0.0177,0.0350
1760000025560,47636,0.0214,-0.9786,0.0993,-0.0036,-0.0044,0.0025
1760000025580,47959,0.0171,-0.9817,0.0988,-0.0099,-0.0258,0.0213
1760000025600,47957,0.0244,-0.9757,0.0962,-0.0247,-0.0065,-0.0146
1760000025620,48132,0.0211,-0.9838,0.1024,-0.0219,0.0145,-0.0424
1760000025640,48800,0.0187,-0.9777,0.1030,0.0040,0.0182,-0.0226
1760000025660,48966,0.0162,-0.9731,0.0978,-0.0501,-0.0110,-0.0014
1760000025680,49341,0.0232,-0.9904,0.1075,-0.0231,0.0060,-0.0161
1760000025700,49767,0.0150,-0.9890,0.1014,-0.0181,0.0130,-0.0060
1760000025720,50231,0.0225,-0.9729,0.1022,-0.0095,-0.0125,0.0156
1760000025740,50425,0.0180,-0.9811,0.0969,-0.0050,0.0080,-0.0188
1760000025760,50859,0.0295,-0.9791,0.1020,0.0003,0.0395,0.0155
1760000025780,51118,0.0178,-0.9778,0.0968,0.0023,-0.0040,0.0147
1760000025800,51364,0.0214,-0.9788,0.1084,0.0097,-0.0051,0.0233
1760000025820,51702,0.0212,-0.9869,0.0934,0.0088,0.0006,-0.0095
1760000025840,52005,0.0132,-0.9779,0.1007,0.0046,0.0214,-0.0045
1760000025860,52108,0.0207,-0.9784,0.0976,-0.0056,-0.0181,0.0228
1760000025880,52339,0.0155,-0.9757,0.0995,0.0163,-0.0079,0.0142
1760000025900,52593,0.0362,-0.9793,0.0985,0.0029,0.0244,-0.0306
1760000025920,52482,0.0240,-0.9754,0.0960,-0.0032,0.0196,0.0135
1760000025940,52706,0.0188,-0.9895,0.1011,0.0032,-0.0055,0.0129
1760000025960,52420,0.0136,-0.9731,0.1028,0.0174,-0.0054,0.0268
1760000025980,52418,0.0128,-0.9845,0.1028,-0.0394,-0.0126,0.0137
1760000026000,52166,0.0186,-0.9874,0.1034,-0.0073,0.0493,-0.0007
1760000026020,51961,0.0152,-0.9820,0.0967,0.0361,-0.0317,0.0135
1760000026040,51667,0.0127,-0.9692,0.1107,0.0070,0.0020,-0.0373
1760000026060,51411,0.0223,-0.9831,0.0954,-0.0175,-0.0433,0.0062
1760000026080,51180,0.0200,-0.9801,0.1018,-0.0031,-0.0243,-0.0181
1760000026100,50864,0.0265,-0.9773,0.0995,-0.0013,-0.0071,0.0088
1760000026120,50575,0.0217,-0.9877,0.1038,0.0205,0.0012,0.0026
1760000026140,50058,0.0241,-0.9883,0.0958,-0.0016,0.0077,0.0129
1760000026160,49578,0.0221,-0.9764,0.0922,-0.0115,-0.0002,0.0058
1760000026180,49304,0.0196,-0.9782,0.1035,0.0103,0.0547,-0.0082
1760000026200,48972,0.0195,-0.9777,0.0906,0.0051,0.0104,-0.0409
1760000026220,48610,0.0240,-0.9828,0.1040,0.0281,0.0090,0.0137
1760000026240,48230,0.0185,-0.9800,0.0930,-0.0025,0.0162,0.0228
1760000026260,48010,0.0198,-0.9796,0.1010,-0.0155,0.0051,-0.0196
1760000026280,47812,0.0232,-0.9716,0.1027,0.0214,-0.0015,0.0095
1760000026300,47731,0.0110,-0.9781,0.0934,0.0117,-0.0187,0.0231
1760000026320,47675,0.0166,-0.9836,0.1062,-0.0209,0.0158,0.0104
1760000026340,47533,0.0118,-0.9847,0.1120,0.0087,0.0025,-0.0077
1760000026360,47445,0.0150,-0.9862,0.1055,-0.0080,-0.0622,0.0056
1760000026380,47547,0.0185,-0.9802,0.0995,0.0070,0.0211,-0.0238
1760000026400,47633,0.0181,-0.9804,0.0995,-0.0028,0.0272,0.0192
1760000026420,47554,0.0094,-0.9816,0.0968,0.0224,0.0266,0.0039
1760000026440,47837,0.0240,-0.9780,0.0973,0.0118,0.0202,0.0337
1760000026460,48260,0.0201,-0.9791,0.0968,-0.0050,0.0169,-0.0135
1760000026480,48399,0.0148,-0.9769,0.1047,-0.0206,-0.0082,-0.0007
1760000026500,48675,0.0183,-0.9772,0.0980,-0.0045,-0.0125,-0.0237
1760000026520,49092,0.0153,-0.9813,0.1043,0.0008,0.0349,0.0112
1760000026540,49458,0.0178,-0.9842,0.1032,-0.0261,0.0111,0.0099
1760000026560,49704,0.0210,-0.9771,0.0951,-0.0050,-0.0057,0.0232
1760000026580,50229,0.0176,-0.9846,0.1006,-0.0048,-0.0217,-0.0011
1760000026600,50566,0.0192,-0.9767,0.1026,-0.0193,-0.0439,-0.0211
1760000026620,50730,0.0245,-0.9810,0.0898,-0.0236,0.0205,-0.0319
1760000026640,51222,0.0216,-0.9848,0.1053,-0.0463,-0.0089,-0.0346
1760000026660,51541,0.0204,-0.9821,0.0920,0.0090,0.0181,-0.0076
1760000026680,51785,0.0158,-0.9834,0.1065,-0.0005,-0.0037,-0.0168
1760000026700,52076,0.0097,-0.9762,0.0952,0.0173,0.0310,0.0194
1760000026720,52225,0.0329,-0.9808,0.1019,0.0482,-0.0110,0.0261
1760000026740,52495,0.0234,-0.9800,0.0998,-0.0070,0.0033,-0.0083
1760000026760,52424,0.0235,-0.9855,0.0935,0.0226,-0.0109,0.0078
1760000026780,52581,0.0120,-0.9824,0.0975,-0.0168,-0.0085,-0.0028
1760000026800,52461,0.0180,-0.9696,0.0992,0.0281,0.0390,-0.0292
1760000026820,52373,0.0136,-0.9758,0.1003,0.0133,-0.0353,0.0100
1760000026840,52343,0.0153,-0.9803,0.1010,0.0311,0.0182,-0.0366
1760000026860,52066,0.0225,-0.9835,0.0954,-0.0313,-0.0080,0.0088
1760000026880,51922,0.0226,-0.9847,0.0919,-0.0153,0.0184,-0.0205
1760000026900,51551,0.0265,-0.9746,0.1040,-0.0030,-0.0323,-0.0335
1760000026920,51420,0.0289,-0.9822,0.0998,-0.0229,0.0153,-0.0279
1760000026940,51024,0.0247,-0.9709,0.0965,-0.0068,0.0159,-0.0059
1760000026960,50669,0.0165,-0.9803,0.1004,-0.0115,0.0251,-0.0192
1760000026980,50390,0.0205,-0.9833,0.0916,0.0142,-0.0169,0.0224
1760000027000,50017,0.0211,-0.9837,0.0908,-0.0142,0.0132,-0.0115
1760000027020,49612,0.0248,-0.9773,0.0972,0.0303,0.0203,-0.0044
1760000027040,49170,0.0164,-0.9732,0.0984,-0.0197,-0.0045,0.0095
1760000027060,48977,0.0229,-0.9797,0.1040,-0.0048,0.0215,-0.0202
1760000027080,48735,0.0224,-0.9832,0.0998,0.0145,-0.0019,0.0313
1760000027100,48275,0.0137,-0.9737,0.0992,0.0136,0.0484,-0.0082
1760000027120,48048,0.0114,-0.9857,0.0975,0.0157,-0.0017,0.0111
1760000027140,47989,0.0270,-0.9848,0.1051,0.0021,0.0319,0.0193
1760000027160,47770,0.0153,-0.9653,0.1017,0.0057,-0.0446,0.0018
1760000027180,47673,0.0255,-0.9794,0.1054,-0.0006,-0.0075,-0.0512
1760000027200,47555,0.0206,-0.9857,0.1008,-0.0196,-0.0211,-0.0051
1760000027220,47496,0.0169,-0.9790,0.1053,-0.0009,0.0009,-0.0016
1760000027240,47604,0.0214,-0.9796,0.1002,0.0243,0.0274,0.0472
1760000027260,47631,0.0218,-0.9746,0.1033,-0.0263,-0.0372,-0.0366
1760000027280,47738,0.0194,-0.9853,0.1041,-0.0081,0.0257,-0.0237
1760000027300,47827,0.0199,-0.9746,0.1012,0.0114,-0.0331,0.0004
1760000027320,48282,0.0275,-0.9815,0.1159,0.0288,-0.0028,-0.0023
1760000027340,48474,0.0149,-0.9765,0.0982,-0.0101,-0.0200,0.0265
1760000027360,48772,0.0197,-0.9749,0.0943,0.0073,0.0011,-0.0160
1760000027380,49046,0.0262,-0.9797,0.0938,0.0115,0.0076,0.0099
1760000027400,49609,0.0205,-0.9878,0.0953,0.0058,0.0033,0.0230
1760000027420,49962,0.0235,-0.9815,0.0942,-0.0112,0.0155,0.0401
1760000027440,50168,0.0238,-0.9742,0.0995,-0.0158,-0.0008,-0.0304
1760000027460,50530,0.0213,-0.9847,0.1025,0.0071,-0.0077,-0.0157
1760000027480,51051,0.0160,-0.9791,0.0991,0.0089,0.0145,-0.0032
1760000027500,51254,0.0237,-0.9870,0.0968,-0.0038,-0.0021,0.0117
1760000027520,51590,0.0260,-0.9807,0.1017,0.0144,-0.0187,0.0081
1760000027540,52047,0.0184,-0.9900,0.0970,0.0233,0.0252,-0.0377
1760000027560,51945,0.0309,-0.9814,0.1027,0.0179,0.0128,0.0002
1760000027580,52241,0.0221,-0.9816,0.0968,-0.0047,0.0279,-0.0332
1760000027600,52401,0.0117,-0.9792,0.1050,-0.0051,0.0071,0.0054
1760000027620,52596,0.0233,-0.9777,0.0970,-0.0040,-0.0067,-0.0163
1760000027640,52428,0.0244,-0.9889,0.1062,-0.0067,0.0038,-0.0213
1760000027660,52462,0.0184,-0.9756,0.1011,-0.0022,0.0067,0.0071
1760000027680,52355,0.0267,-0.9797,0.1067,0.0066,-0.0088,-0.0327
1760000027700,52188,0.0228,-0.9810,0.0999,0.0467,0.0357,-0.0170
1760000027720,52224,0.0165,-0.9735,0.1025,-0.0056,0.0172,0.0099
1760000027740,51831,0.0198,-0.9882,0.1090,0.0100,0.0333,-0.0159
1760000027760,51720,0.0239,-0.9789,0.1009,0.0647,0.0220,-0.0183
1760000027780,51281,0.0281,-0.9856,0.0999,-0.0062,-0.0287,0.0402
1760000027800,50977,0.0226,-0.9851,0.1103,0.0275,0.0060,0.0173
1760000027820,50749,0.0155,-0.9865,0.1012,-0.0025,0.0068,0.0176
1760000027840,50343,0.0114,-0.9782,0.1027,0.0051,-0.0127,-0.0078
1760000027860,49899,0.0112,-0.9752,0.0953,-0.0059,-0.0158,0.0243
1760000027880,49718,0.0293,-0.9839,0.1012,-0.0165,0.0117,0.0090
1760000027900,49220,0.0228,-0.9865,0.1066,-0.0046,-0.0076,-0.0184
1760000027920,48822,0.0209,-0.9857,0.1007,0.0097,-0.0018,0.0309
1760000027940,48506,0.0158,-0.9709,0.1068,0.0361,-0.0115,-0.0300
1760000027960,48364,0.0150,-0.9857,0.1039,0.0414,-0.0056,-0.0216
1760000027980,47975,0.0196,-0.9869,0.0996,-0.0330,-0.0193,0.0015
1760000028000,47821,0.0158,-0.9752,0.1011,-0.0164,-0.0149,-0.0151
1760000028020,47767,0.0263,-0.9740,0.0978,0.0042,-0.0172,0.0042
1760000028040,47661,0.0167,-0.9779,0.0990,0.0701,-0.0072,0.0002
1760000028060,47410,0.0163,-0.9778,0.0978,-0.0097,-0.0022,-0.0352
1760000028080,47586,0.0216,-0.9766,0.1065,0.0214,0.0055,-0.0117
1760000028100,47577,0.0208,-0.9815,0.1091,-0.0040,0.0162,-0.0100
1760000028120,47670,0.0152,-0.9799,0.1020,-0.0013,0.0267,-0.0103
1760000028140,47792,0.0147,-0.9804,0.0984,0.0124,0.0152,0.0113
1760000028160,47961,0.0200,-0.9778,0.0956,0.0252,0.0213,0.0160
1760000028180,48196,0.0314,-0.9891,0.0967,0.0101,0.0097,0.0098
1760000028200,48485,0.0256,-0.9731,0.0986,-0.0087,0.0191,0.0230
1760000028220,48835,0.0193,-0.9824,0.0966,-0.0177,0.0013,0.0298
1760000028240,49234,0.0178,-0.9828,0.1027,-0.0330,-0.0096,0.0162
1760000028260,49424,0.0193,-0.9817,0.1110,-0.0097,-0.0180,-0.0234
1760000028280,49803,0.0178,-0.9789,0.1011,0.0286,0.0159,-0.0301
1760000028300,50341,0.0223,-0.9791,0.1010,0.0105,-0.0122,0.0038
1760000028320,50677,0.0197,-0.9758,0.1069,-0.0220,0.0256,0.0060
1760000028340,50972,0.0227,-0.9804,0.1025,-0.0358,0.0031,0.0397
1760000028360,51366,0.0257,-0.9649,0.1051,-0.0120,0.0121,0.0049
1760000028380,51682,0.0213,-0.9792,0.1030,0.0073,-0.0027,-0.0028
1760000028400,51946,0.0155,-0.9790,0.0915,0.0027,0.0024,0.0154
1760000028420,52083,0.0231,-0.9777,0.1025,0.0164,0.0148,0.0107
1760000028440,52321,0.0252,-0.9766,0.1022,-0.0292,-0.0239,0.0054
1760000028460,52409,0.0218,-0.9794,0.1090,0.0088,-0.0147,0.0086
1760000028480,52337,0.0183,-0.9786,0.1071,-0.0274,-0.0044,-0.0344
1760000028500,52489,0.0208,-0.9869,0.0953,0.0089,0.0105,-0.0160
1760000028520,52469,0.0125,-0.9858,0.0947,-0.0114,-0.0001,0.0012
1760000028540,52402,0.0249,-0.9796,0.0943,-0.0020,-0.0130,-0.0099
1760000028560,52261,0.0197,-0.9819,0.0853,0.0005,0.0231,0.0026
1760000028580,52114,0.0195,-0.9768,0.0995,-0.0411,0.0074,0.0084
1760000028600,51987,0.0284,-0.9738,0.1049,-0.0141,0.0020,0.0068
1760000028620,51510,0.0106,-0.9830,0.0979,-0.0211,-0.0286,-0.0148
1760000028640,51315,0.0246,-0.9803,0.1012,-0.0379,-0.0353,0.0310
1760000028660,50924,0.0240,-0.9725,0.0933,-0.0125,-0.0170,-0.0461
1760000028680,50584,0.0151,-0.9737,0.0979,0.0165,0.0031,-0.0173
1760000028700,50307,0.0172,-0.9787,0.0904,-0.0090,0.0028,0.0074
1760000028720,49778,0.0216,-0.9833,0.0984,-0.0047,-0.0193,0.0083
1760000028740,49549,0.0114,-0.9727,0.0952,-0.0166,-0.0360,0.0285
1760000028760,49230,0.0183,-0.9767,0.1024,-0.0205,-0.0321,0.0158
1760000028780,48766,0.0203,-0.9756,0.1009,0.0362,-0.0080,-0.0130
1760000028800,48358,0.0197,-0.9758,0.1039,-0.0085,-0.0154,-0.0018
1760000028820,48272,0.0151,-0.9813,0.0982,-0.0036,0.0007,-0.0010
1760000028840,48087,0.0132,-0.9797,0.1024,-0.0224,0.0198,-0.0107
1760000028860,47856,0.0215,-0.9730,0.1073,-0.0232,0.0185,-0.0088
1760000028880,47725,0.0189,-0.9756,0.1008,-0.0299,0.0091,-0.0264
1760000028900,47447,0.0221,-0.9783,0.1074,0.0001,0.0195,-0.0094
1760000028920,47677,0.0203,-0.9737,0.1011,0.0263,0.0083,-0.0154
1760000028940,47439,0.0194,-0.9846,0.1123,0.0052,0.0333,0.0066
1760000028960,47520,0.0182,-0.9798,0.1006,-0.0182,0.0396,0.0066
1760000028980,47643,0.0143,-0.9752,0.1110,-0.0045,-0.0020,0.0389
1760000029000,47797,0.0167,-0.9795,0.1030,-0.0135,0.0163,0.0070
1760000029020,48019,0.0141,-0.9715,0.1042,-0.0119,0.0310,-0.0174
1760000029040,48320,0.0329,-0.9769,0.0908,-0.0000,-0.0139,0.0280
1760000029060,48709,0.0278,-0.9877,0.0993,-0.0045,0.0109,0.0298
1760000029080,48901,0.0344,-0.9877,0.0993,0.0413,0.0031,0.0540
1760000029100,49279,0.0298,-0.9820,0.0967,-0.0156,-0.0332,-0.0195
1760000029120,49534,0.0231,-0.9789,0.0881,-0.0005,0.0113,0.0737
1760000029140,49851,0.0204,-0.9904,0.1025,-0.0018,0.0203,0.0233
1760000029160,50383,0.0333,-0.9749,0.0988,-0.0213,-0.0103,-0.0163
1760000029180,50699,0.0140,-0.9828,0.0961,0.0156,-0.0093,-0.0066
1760000029200,50980,0.0217,-0.9826,0.0907,-0.0118,-0.0065,0.0131
1760000029220,51282,0.0319,-0.9798,0.1021,-0.0142,-0.0025,-0.0302
1760000029240,51649,0.0245,-0.9804,0.1081,0.0225,0.0071,0.0016
1760000029260,51997,0.0189,-0.9859,0.0914,-0.0141,-0.0285,-0.0051
1760000029280,52117,0.0259,-0.9840,0.1018,-0.0007,-0.0019,-0.0255
1760000029300,52243,0.0158,-0.9732,0.1019,0.0122,-0.0200,0.0001
1760000029320,52505,0.0217,-0.9772,0.1002,-0.0049,-0.0276,0.0230
1760000029340,52481,0.0227,-0.9805,0.0991,-0.0170,-0.0530,0.0024
1760000029360,52567,0.0220,-0.9790,0.0983,-0.0296,-0.0295,0.0298
1760000029380,52580,0.0285,-0.9913,0.1033,0.0147,-0.0207,0.0096
1760000029400,52299,0.0151,-0.9953,0.1074,0.0135,-0.0266,0.0183
1760000029420,52251,0.0193,-0.9749,0.0988,0.0111,0.0025,0.0267
1760000029440,52086,0.0221,-0.9778,0.1028,0.0332,-0.0392,0.0010
1760000029460,51582,0.0154,-0.9725,0.0945,0.0234,0.0137,-0.0043
1760000029480,51477,0.0229,-0.9792,0.1112,0.0097,-0.0056,0.0154
1760000029500,51336,0.0236,-0.9763,0.0961,-0.0161,-0.0009,-0.0014
1760000029520,50932,0.0142,-0.9886,0.0962,-0.0180,-0.0188,-0.0063
1760000029540,50577,0.0201,-0.9876,0.1026,-0.0067,-0.0158,0.0063
1760000029560,50204,0.0209,-0.9847,0.1008,-0.0088,0.0009,-0.0255
1760000029580,49855,0.0149,-0.9786,0.0987,-0.0329,-0.0152,0.0281
1760000029600,49521,0.0230,-0.9852,0.1086,0.0214,0.0127,-0.0047
1760000029620,49044,0.0140,-0.9712,0.0872,0.0049,-0.0076,0.0063
1760000029640,48790,0.0190,-0.9779,0.0967,0.0325,0.0085,-0.0067
1760000029660,48407,0.0163,-0.9777,0.0965,-0.0003,-0.0214,-0.0154
1760000029680,48230,0.0196,-0.9839,0.0955,-0.0069,-0.0127,0.0025
1760000029700,48019,0.0224,-0.9740,0.1020,0.0019,0.0019,-0.0006
1760000029720,47776,0.0213,-0.9891,0.1038,0.0189,-0.0136,-0.0095
1760000029740,47551,0.0150,-0.9834,0.1087,-0.0210,0.0092,-0.0145
1760000029760,47551,0.0132,-0.9726,0.0931,0.0147,0.0101,0.0119
1760000029780,47433,0.0204,-0.9771,0.1013,-0.0399,-0.0212,-0.0060
1760000029800,47545,0.0169,-0.9753,0.0949,0.0211,-0.0016,-0.0204
1760000029820,47431,0.0250,-0.9819,0.0999,0.0276,-0.0150,0.0427
1760000029840,47735,0.0124,-0.9821,0.0989,0.0086,-0.0031,0.0207
1760000029860,47983,0.0169,-0.9852,0.0993,-0.0123,0.0207,-0.0071
1760000029880,47912,0.0267,-0.9750,0.1037,-0.0221,-0.0261,-0.0179
1760000029900,48302,0.0182,-0.9746,0.0995,-0.0223,-0.0027,0.0335
1760000029920,48533,0.0295,-0.9863,0.0991,-0.0032,0.0093,0.0189
1760000029940,48958,0.0237,-0.9842,0.1010,-0.0095,0.0177,-0.0034
1760000029960,49220,0.0232,-0.9818,0.1001,-0.0548,0.0167,0.0036
1760000029980,49518,0.0263,-0.9897,0.1001,-0.0358,0.0203,-0.0272
1760000030000,49795,0.0230,-0.9765,0.0979,0.0060,-0.0077,0.0037
1760000030020,50387,0.0222,-0.9796,0.0991,-0.0087,0.0265,-0.0236
1760000030040,50722,0.0209,-0.9866,0.0935,-0.0166,-0.0000,0.0278
1760000030060,50997,0.0169,-0.9792,0.0995,-0.0281,0.0176,0.0559
1760000030080,51314,0.0234,-0.9725,0.0997,0.0095,0.0044,0.0464
1760000030100,51567,0.0232,-0.9793,0.0977,-0.0085,-0.0110,-0.0045
1760000030120,52012,0.0281,-0.9810,0.0974,0.0133,-0.0060,-0.0077
1760000030140,52254,0.0176,-0.9819,0.0931,0.0101,-0.0140,-0.0014
1760000030160,52220,0.0181,-0.9750,0.1038,0.0120,0.0097,0.0043
1760000030180,52416,0.0137,-0.9819,0.1020,-0.0288,-0.0094,0.0433
1760000030200,52466,0.0198,-0.9802,0.1004,-0.0291,0.0076,-0.0111
1760000030220,52464,0.0336,-0.9794,0.1024,0.0287,-0.0288,0.0022
1760000030240,52401,0.0238,-0.9718,0.0979,0.0131,0.0206,0.0352
1760000030260,52304,0.0124,-0.9783,0.1047,0.0169,-0.0026,-0.0031
1760000030280,52211,0.0247,-0.9814,0.0984,-0.0162,0.0090,-0.0401
1760000030300,52049,0.0197,-0.9708,0.0965,-0.0177,-0.0432,0.0030
1760000030320,51885,0.0171,-0.9879,0.0954,0.0402,-0.0158,0.0167
1760000030340,51509,0.0166,-0.9836,0.1022,-0.0008,-0.0365,0.0001
1760000030360,51271,0.0208,-0.9890,0.0845,-0.0045,-0.0281,0.0016
1760000030380,50947,0.0262,-0.9819,0.0982,-0.0167,-0.0060,0.0032
1760000030400,50457,0.0149,-0.9791,0.1066,-0.0026,0.0021,0.0100
1760000030420,50112,0.0137,-0.9807,0.1033,-0.0198,-0.0065,-0.0082
1760000030440,49719,0.0183,-0.9774,0.0992,-0.0088,0.0041,-0.0205
1760000030460,49452,0.0248,-0.9799,0.0991,0.0172,0.0103,0.0149
1760000030480,49130,0.0129,-0.9739,0.0995,0.0475,-0.0381,0.0124
1760000030500,48604,0.0117,-0.9776,0.1023,0.0122,0.0071,-0.0324
1760000030520,48505,0.0228,-0.9792,0.1025,0.0277,-0.0127,-0.0044
1760000030540,48288,0.0248,-0.9782,0.1035,-0.0081,-0.0212,0.0122
1760000030560,48011,0.0205,-0.9784,0.0993,-0.0000,-0.0137,-0.0037
1760000030580,47742,0.0191,-0.9798,0.1007,-0.0010,0.0218,-0.0039
1760000030600,47713,0.0191,-0.9790,0.0920,0.0116,0.0143,0.0177
1760000030620,47556,0.0259,-0.9857,0.1029,0.0112,0.0263,-0.0054
1760000030640,47588,0.0137,-0.9748,0.1018,0.0412,-0.0163,0.0015
1760000030660,47528,0.0229,-0.9754,0.0991,-0.0102,0.0122,-0.0162
1760000030680,47628,0.0084,-0.9777,0.0909,-0.0045,0.0162,-0.0055
1760000030700,47739,0.0210,-0.9655,0.1020,0.0002,-0.0029,0.0188
1760000030720,47845,0.0174,-0.9779,0.1058,0.0129,0.0031,-0.0193
1760000030740,48051,0.0118,-0.9762,0.0965,-0.0036,-0.0015,-0.0090
1760000030760,48372,0.0225,-0.9861,0.1034,-0.0252,-0.0073,-0.0001
1760000030780,48597,0.0204,-0.9752,0.0925,-0.0283,0.0034,-0.0122
1760000030800,49005,0.0225,-0.9823,0.1025,0.0352,-0.0236,-0.0093
1760000030820,49169,0.0292,-0.9728,0.1047,0.0519,0.0165,-0.0106
1760000030840,49740,0.0265,-0.9800,0.1066,0.0130,-0.0059,-0.0318
1760000030860,50112,0.0156,-0.9777,0.0882,-0.0195,-0.0072,-0.0014
1760000030880,50414,0.0182,-0.9770,0.0997,-0.0035,0.0248,0.0161
1760000030900,50852,0.0154,-0.9729,0.0993,0.0305,0.0257,0.0358
1760000030920,51080,0.0229,-0.9764,0.1015,0.0080,0.0093,0.0244
1760000030940,51434,0.0079,-0.9759,0.1060,0.0069,-0.0069,0.0116
1760000030960,51830,0.0134,-0.9830,0.1050,-0.0117,0.0068,-0.0063
1760000030980,51959,0.0207,-0.9753,0.0989,-0.0146,0.0183,-0.0034
1760000031000,52186,0.0210,-0.9748,0.0946,-0.0095,0.0418,-0.0301
1760000031020,52337,0.0177,-0.9895,0.0923,-0.0420,-0.0316,-0.0091
1760000031040,52497,0.0212,-0.9853,0.0986,0.0360,0.0014,-0.0442
1760000031060,52399,0.0241,-0.9852,0.0975,0.0334,-0.0249,0.0303
1760000031080,52444,0.0137,-0.9724,0.0901,-0.0048,0.0239,0.0361
1760000031100,52509,0.0208,-0.9884,0.1005,0.0020,0.0096,-0.0222
1760000031120,52313,0.0260,-0.9704,0.0971,0.0209,0.0131,0.0006
1760000031140,52089,0.0150,-0.9823,0.1016,0.0106,-0.0050,0.0130
1760000031160,51890,0.0155,-0.9799,0.0981,-0.0037,0.0305,0.0151
1760000031180,51787,0.0205,-0.9839,0.0982,0.0116,-0.0135,-0.0022
1760000031200,51512,0.0154,-0.9752,0.0956,0.0204,-0.0303,-0.0181
1760000031220,51156,0.0279,-0.9830,0.1003,-0.0293,0.0612,-0.0350
1760000031240,50875,0.0106,-0.9809,0.1031,0.0586,-0.0039,0.0331
1760000031260,50390,0.0215,-0.9804,0.1003,-0.0147,0.0394,-0.0109
1760000031280,50189,0.0189,-0.9808,0.0971,-0.0229,-0.0275,-0.0076
1760000031300,49718,0.0261,-0.9712,0.0947,-0.0319,0.0382,0.0047
1760000031320,49257,0.0234,-0.9900,0.1037,-0.0325,0.0064,0.0085
1760000031340,49102,0.0193,-0.9803,0.0961,-0.0359,0.0079,-0.0025
1760000031360,48613,0.0136,-0.9811,0.0892,0.0166,0.0194,-0.0074
1760000031380,48369,0.0220,-0.9760,0.1006,-0.0045,0.0384,-0.0138
1760000031400,48200,0.0222,-0.9770,0.1033,-0.0220,0.0221,0.0065
1760000031420,47979,0.0235,-0.9826,0.1072,0.0199,0.0139,-0.0185
1760000031440,47829,0.0199,-0.9799,0.0963,-0.0063,-0.0143,0.0156
1760000031460,47572,0.0125,-0.9797,0.0904,-0.0036,-0.0175,0.0281
1760000031480,47533,0.0120,-0.9790,0.1054,0.0141,0.0243,-0.0343
1760000031500,47493,0.0201,-0.9704,0.0982,-0.0001,-0.0334,-0.0329
1760000031520,47428,0.0280,-0.9767,0.0934,0.0069,-0.0125,-0.0066
1760000031540,47686,0.0173,-0.9748,0.1029,-0.0081,0.0155,-0.0209
1760000031560,47713,0.0223,-0.9806,0.1059,-0.0708,0.0051,0.0199
1760000031580,47848,0.0178,-0.9705,0.1038,-0.0488,-0.0293,-0.0355
1760000031600,48048,0.0235,-0.9821,0.0980,-0.0385,-0.0038,-0.0277
1760000031620,48353,0.0230,-0.9753,0.0953,0.0106,0.0159,-0.0004
1760000031640,48798,0.0186,-0.9755,0.1012,0.0151,0.0108,0.0251
1760000031660,49058,0.0148,-0.9866,0.1007,-0.0357,-0.0020,-0.0034
1760000031680,49417,0.0142,-0.9869,0.1020,-0.0011,0.0089,0.0260
1760000031700,49713,0.0165,-0.9814,0.1011,0.0218,-0.0177,0.0036
1760000031720,50185,0.0218,-0.9777,0.0996,-0.0167,0.0380,-0.0245
1760000031740,50554,0.0214,-0.9802,0.1081,-0.0126,0.0102,0.0073
1760000031760,50883,0.0141,-0.9833,0.0996,0.0195,0.0089,-0.0162
1760000031780,50982,0.0219,-0.9852,0.1071,-0.0025,0.0380,0.0070
1760000031800,51509,0.0123,-0.9723,0.1042,-0.0156,0.0049,-0.0151
1760000031820,51719,0.0194,-0.9743,0.0960,-0.0022,-0.0293,-0.0038
1760000031840,51936,0.0274,-0.9813,0.0987,0.0053,0.0004,0.0146
1760000031860,52256,0.0233,-0.9895,0.1085,0.0256,0.0177,0.0224
1760000031880,52314,0.0231,-0.9817,0.0953,-0.0063,0.0028,0.0093
1760000031900,52432,0.0278,-0.9687,0.0999,0.0209,0.0101,-0.0237
1760000031920,52534,0.0140,-0.9847,0.0995,-0.0121,0.0037,-0.0338
1760000031940,52605,0.0183,-0.9705,0.0968,-0.0185,-0.0051,-0.0180
1760000031960,52406,0.0155,-0.9775,0.0992,-0.0011,-0.0026,0.0297
1760000031980,52272,0.0278,-0.9822,0.1028,-0.0269,0.0427,-0.0027
1760000032000,52087,0.0175,-0.9696,0.0948,-0.0023,0.0159,0.0001
1760000032020,51873,0.0197,-0.9744,0.1027,0.0068,0.0020,0.0286
1760000032040,51731,0.0214,-0.9827,0.0999,0.0071,-0.0091,0.0258
1760000032060,51322,0.0250,-0.9744,0.1045,-0.0312,0.0051,0.0216
1760000032080,51035,0.0169,-0.9873,0.0959,0.0101,-0.0112,-0.0370
1760000032100,50806,0.0153,-0.9899,0.0988,-0.0357,0.0376,-0.0212
1760000032120,50511,0.0224,-0.9839,0.1033,0.0003,-0.0008,-0.0224
1760000032140,49992,0.0128,-0.9822,0.0997,0.0070,0.0123,0.0426
1760000032160,49641,0.0224,-0.9798,0.1011,-0.0053,0.0124,0.0120
1760000032180,49401,0.0171,-0.9707,0.0952,0.0081,-0.0191,-0.0163
1760000032200,48952,0.0186,-0.9840,0.0973,-0.0507,0.0116,0.0029
1760000032220,48638,0.0156,-0.9801,0.1012,-0.0172,0.0068,-0.0323
1760000032240,48315,0.0189,-0.9722,0.0992,0.0168,0.0189,0.0113
1760000032260,48084,0.0116,-0.9782,0.0966,0.0195,-0.0110,0.0224
1760000032280,47845,0.0169,-0.9702,0.1099,0.0174,-0.0423,0.0287
1760000032300,47601,0.0183,-0.9760,0.0998,0.0081,-0.0069,-0.0001
1760000032320,47669,0.0217,-0.9832,0.1027,0.0159,0.0041,-0.0158
1760000032340,47551,0.0142,-0.9802,0.1029,0.0090,0.0216,0.0108
1760000032360,47516,0.0163,-0.9784,0.0978,-0.0008,0.0284,-0.0097
1760000032380,47403,0.0199,-0.9697,0.0898,0.0023,0.0023,-0.0187
1760000032400,47697,0.0194,-0.9810,0.0971,-0.0044,0.0004,-0.0085
1760000032420,47823,0.0179,-0.9844,0.1042,0.0496,-0.0065,-0.0215
1760000032440,47868,0.0204,-0.9738,0.0964,0.0158,-0.0314,-0.0265
1760000032460,48170,0.0211,-0.9767,0.1033,0.0379,0.0127,0.0046
1760000032480,48432,0.0230,-0.9814,0.1069,0.0074,-0.0087,0.0284
1760000032500,48714,0.0201,-0.9738,0.1057,0.0151,0.0297,-0.0089
1760000032520,49088,0.0227,-0.9806,0.0919,0.0082,0.0061,0.0041
1760000032540,49436,0.0180,-0.9803,0.0959,-0.0149,-0.0238,-0.0155
1760000032560,49870,0.0242,-0.9807,0.1060,-0.0102,0.0230,0.0512
1760000032580,50213,0.0166,-0.9795,0.0957,-0.0083,0.0050,-0.0186
1760000032600,50337,0.0175,-0.9775,0.0938,0.0103,0.0226,-0.0167
1760000032620,50871,0.0241,-0.9798,0.0975,-0.0014,-0.0135,0.0061
1760000032640,51225,0.0241,-0.9762,0.1051,-0.0243,-0.0347,-0.0210
1760000032660,51543,0.0169,-0.9842,0.0887,-0.0019,-0.0199,0.0285
1760000032680,51754,0.0154,-0.9852,0.0969,0.0033,0.0248,0.0231
1760000032700,51988,0.0304,-0.9735,0.1065,0.0038,0.0039,-0.0271
1760000032720,52150,0.0153,-0.9867,0.1095,0.0076,-0.0326,-0.0326
1760000032740,52334,0.0223,-0.9785,0.0980,-0.0162,-0.0113,-0.0216
1760000032760,52423,0.0306,-0.9786,0.0885,-0.0287,-0.0491,0.0286
1760000032780,52463,0.0214,-0.9833,0.1084,0.0006,-0.0235,-0.0217
1760000032800,52384,0.0230,-0.9867,0.1099,-0.0115,0.0135,0.0103
1760000032820,52447,0.0127,-0.9729,0.0964,0.0074,0.0101,-0.0632
1760000032840,52265,0.0228,-0.9787,0.1012,0.0122,-0.0103,0.0094
1760000032860,51833,0.0296,-0.9928,0.1012,0.0115,-0.0155,-0.0164
1760000032880,51944,0.0141,-0.9815,0.0987,-0.0302,0.0235,0.0230
1760000032900,51751,0.0325,-0.9781,0.0965,-0.0127,-0.0087,0.0062
1760000032920,51277,0.0179,-0.9721,0.1032,0.0158,-0.0384,-0.0235
1760000032940,51200,0.0208,-0.9782,0.1001,-0.0068,0.0198,0.0203
1760000032960,50751,0.0229,-0.9743,0.1061,-0.0187,-0.0066,-0.0238
1760000032980,50437,0.0139,-0.9773,0.1072,-0.0036,0.0112,-0.0011
1760000033000,49994,0.0175,-0.9739,0.0964,0.0193,-0.0039,0.0041
1760000033020,49506,0.0169,-0.9802,0.0996,0.0146,-0.0046,-0.0222
1760000033040,49315,0.0181,-0.9759,0.1053,-0.0028,0.0222,0.0361
1760000033060,49144,0.0175,-0.9712,0.1054,0.0145,-0.0056,-0.0100
1760000033080,48508,0.0126,-0.9766,0.0977,0.0047,-0.0157,-0.0013
1760000033100,48234,0.0172,-0.9753,0.1079,0.0075,0.0276,0.0075
1760000033120,48117,0.0232,-0.9761,0.1035,-0.0241,-0.0475,-0.0333
1760000033140,47870,0.0273,-0.9822,0.0951,-0.0097,0.0298,-0.0102
1760000033160,47703,0.0269,-0.9764,0.0925,-0.0015,0.0106,0.0161
1760000033180,47456,0.0131,-0.9782,0.0980,-0.0201,-0.0285,0.0140
1760000033200,47567,0.0179,-0.9742,0.0951,0.0401,0.0370,-0.0114
1760000033220,47505,0.0167,-0.9772,0.1001,0.0113,0.0110,0.0175
1760000033240,47475,0.0245,-0.9701,0.0994,-0.0316,0.0183,0.0474
1760000033260,47577,0.0223,-0.9815,0.0992,0.0033,-0.0079,-0.0057
1760000033280,47791,0.0248,-0.9801,0.0992,0.0141,-0.0091,-0.0037
1760000033300,47870,0.0223,-0.9777,0.1012,-0.0225,0.0160,0.0148
1760000033320,48323,0.0116,-0.9850,0.0936,-0.0074,0.0012,-0.0256
1760000033340,48409,0.0277,-0.9822,0.0908,-0.0117,-0.0097,0.0101
1760000033360,48648,0.0202,-0.9845,0.1001,0.0019,-0.0020,-0.0253
1760000033380,48887,0.0182,-0.9868,0.0961,-0.0426,-0.0061,0.0345
1760000033400,49396,0.0236,-0.9848,0.1137,-0.0336,-0.0058,0.0048
1760000033420,49866,0.0135,-0.9728,0.0996,-0.0088,0.0262,0.0081
1760000033440,50170,0.0158,-0.9800,0.1085,-0.0318,-0.0045,-0.0105
1760000033460,50546,0.0132,-0.9734,0.0974,-0.0027,0.0036,-0.0095
1760000033480,51078,0.0301,-0.9722,0.1027,0.0160,0.0192,0.0145
1760000033500,51287,0.0236,-0.9872,0.0938,0.0098,-0.0066,0.0000
1760000033520,51482,0.0200,-0.9826,0.0972,-0.0175,0.0059,-0.0099
1760000033540,51766,0.0135,-0.9807,0.0938,0.0393,-0.0147,0.0050
1760000033560,51976,0.0266,-0.9756,0.1064,-0.0477,-0.0251,-0.0105
1760000033580,52243,0.0229,-0.9875,0.0934,-0.0074,-0.0122,-0.0013
1760000033600,52350,0.0257,-0.9844,0.0917,-0.0185,0.0101,-0.0179
1760000033620,52578,0.0177,-0.9696,0.1037,-0.0072,-0.0302,-0.0028
1760000033640,52645,0.0235,-0.9773,0.0948,-0.0181,0.0020,-0.0120
1760000033660,52482,0.0233,-0.9756,0.0974,-0.0016,-0.0061,-0.0088
1760000033680,52389,0.0191,-0.9738,0.0952,0.0008,-0.0009,-0.0238
1760000033700,52230,0.0260,-0.9781,0.1017,0.0120,-0.0023,-0.0288
1760000033720,52061,0.0163,-0.9778,0.1029,-0.0203,0.0088,0.0242
1760000033740,51764,0.0240,-0.9786,0.1008,0.0116,-0.0095,-0.0240
1760000033760,51710,0.0247,-0.9839,0.1027,0.0253,-0.0226,0.0300
1760000033780,51462,0.0230,-0.9838,0.1031,-0.0094,0.0139,-0.0209
1760000033800,50938,0.0300,-0.9750,0.1058,-0.0086,-0.0208,0.0105
1760000033820,50714,0.0173,-0.9779,0.1022,-0.0060,-0.0264,-0.0340
1760000033840,50305,0.0199,-0.9793,0.1021,-0.0084,0.0254,-0.0222
1760000033860,49817,0.0099,-0.9827,0.1027,-0.0188,0.0033,-0.0265
1760000033880,49478,0.0187,-0.9848,0.1036,0.0144,0.0209,0.0126
1760000033900,49178,0.0154,-0.9871,0.0967,0.0303,0.0351,-0.0127
1760000033920,48749,0.0260,-0.9756,0.0960,-0.0331,0.0014,0.0079
1760000033940,48524,0.0203,-0.9789,0.1022,0.0194,-0.0050,0.0338
1760000033960,48415,0.0183,-0.9830,0.0938,-0.0112,-0.0060,-0.0001
1760000033980,48058,0.0158,-0.9799,0.0992,0.0302,-0.0031,-0.0185
1760000034000,47829,0.0279,-0.9795,0.1034,0.0354,-0.0025,-0.0037
1760000034020,47810,0.0185,-0.9831,0.1083,-0.0053,-0.0103,0.0205
1760000034040,47613,0.0093,-0.9751,0.0977,-0.0014,0.0254,0.0116
1760000034060,47603,0.0230,-0.9735,0.1027,-0.0072,0.0116,0.0064
1760000034080,47699,0.0187,-0.9870,0.1084,0.0050,0.0300,0.0190
1760000034100,47555,0.0187,-0.9806,0.0939,-0.0007,0.0251,-0.0280
1760000034120,47674,0.0271,-0.9775,0.1015,-0.0056,-0.0200,0.0147
1760000034140,47851,0.0271,-0.9793,0.1040,0.0064,-0.0040,-0.0255
1760000034160,48008,0.0289,-0.9777,0.0982,-0.0096,0.0081,-0.0075
1760000034180,48282,0.0144,-0.9813,0.0949,-0.0256,-0.0253,0.0205
1760000034200,48546,0.0161,-0.9844,0.1011,-0.0129,-0.0319,-0.0185
1760000034220,48920,0.0289,-0.9787,0.1008,0.0294,-0.0075,0.0366
1760000034240,49175,0.0192,-0.9784,0.1001,-0.0069,0.0029,0.0153
1760000034260,49610,0.0258,-0.9753,0.0987,-0.0413,0.0269,-0.0107
1760000034280,49924,0.0216,-0.9765,0.1050,0.0021,-0.0008,-0.0466
1760000034300,50264,0.0179,-0.9903,0.0984,0.0091,0.0048,0.0005
1760000034320,50516,0.0201,-0.9847,0.0965,0.0329,-0.0259,0.0027
1760000034340,50897,0.0173,-0.9838,0.0999,-0.0000,-0.0373,0.0051
1760000034360,51428,0.0143,-0.9789,0.0939,0.0108,-0.0224,0.0173
1760000034380,51589,0.0189,-0.9754,0.1138,-0.0070,0.0238,0.0385
1760000034400,51732,0.0145,-0.9841,0.0971,0.0116,0.0329,-0.0183
1760000034420,52188,0.0162,-0.9838,0.1034,-0.0179,-0.0093,0.0235
1760000034440,52248,0.0260,-0.9785,0.1052,0.0066,0.0584,-0.0200
1760000034460,52420,0.0167,-0.9688,0.0997,0.0069,0.0038,0.0155
1760000034480,52704,0.0116,-0.9842,0.1015,-0.0203,0.0133,0.0128
1760000034500,52500,0.0219,-0.9799,0.0954,-0.0268,-0.0081,-0.0047
1760000034520,52457,0.0269,-0.9810,0.1019,-0.0075,-0.0087,-0.0060
1760000034540,52421,0.0263,-0.9826,0.0909,-0.0340,-0.0301,-0.0379
1760000034560,52139,0.0142,-0.9766,0.0988,0.0297,-0.0338,0.0070
1760000034580,52111,0.0236,-0.9756,0.0963,0.0114,0.0042,-0.0079
1760000034600,51857,0.0198,-0.9818,0.0913,-0.0011,0.0125,0.0321
1760000034620,51527,0.0189,-0.9798,0.1031,0.0163,-0.0026,-0.0164
1760000034640,51403,0.0171,-0.9649,0.1059,-0.0112,0.0389,0.0015
1760000034660,50838,0.0152,-0.9696,0.1041,0.0249,0.0420,-0.0072
1760000034680,50642,0.0225,-0.9760,0.0916,-0.0214,0.0297,-0.0331
1760000034700,50108,0.0155,-0.9885,0.0922,-0.0140,-0.0315,0.0281
1760000034720,49832,0.0286,-0.9810,0.1012,0.0174,-0.0176,-0.0027
1760000034740,49630,0.0240,-0.9777,0.1009,0.0283,-0.0064,-0.0268
1760000034760,49119,0.0191,-0.9901,0.1018,-0.0220,0.0220,0.0119
1760000034780,48804,0.0155,-0.9826,0.0992,-0.0051,0.0152,0.0022
1760000034800,48567,0.0159,-0.9886,0.1055,-0.0225,-0.0003,0.0143
1760000034820,48156,0.0184,-0.9875,0.1006,-0.0085,-0.0191,-0.0193
1760000034840,47985,0.0216,-0.9812,0.1044,-0.0010,-0.0036,0.0029
1760000034860,47797,0.0264,-0.9799,0.0983,-0.0025,-0.0291,-0.0082
1760000034880,47658,0.0281,-0.9810,0.0988,-0.0230,-0.0064,-0.0059
1760000034900,47449,0.0277,-0.9824,0.1049,0.0025,-0.0233,0.0184
1760000034920,47513,0.0185,-0.9775,0.0928,0.0197,-0.0074,-0.0113
1760000034940,47481,0.0194,-0.9798,0.1051,0.0211,-0.0203,-0.0114
1760000034960,47579,0.0206,-0.9782,0.0986,0.0112,0.0022,-0.0236
1760000034980,47640,0.0239,-0.9883,0.1041,0.0104,-0.0164,-0.0186
1760000035000,47814,0.0160,-0.9827,0.1042,-0.0075,-0.0251,0.0201
1760000035020,47900,0.0218,-0.9803,0.1000,-0.0167,-0.0105,0.0097
1760000035040,48290,0.0307,-0.9786,0.1080,-0.0157,0.0157,-0.0132
1760000035060,48578,0.0299,-0.9746,0.1003,-0.0247,0.0135,0.0012
1760000035080,49143,0.0255,-0.9820,0.0970,0.0169,-0.0297,-0.0077
1760000035100,49028,0.0191,-0.9768,0.1118,0.0086,-0.0163,-0.0083
1760000035120,49457,0.0201,-0.9787,0.1010,-0.0271,0.0177,0.0066
1760000035140,50021,0.0146,-0.9814,0.1025,0.0091,0.0081,0.0037
1760000035160,50180,0.0154,-0.9724,0.1023,0.0050,-0.0080,0.0127
1760000035180,50660,0.0183,-0.9723,0.1018,0.0248,-0.0121,-0.0278
1760000035200,51066,0.0176,-0.9780,0.1038,-0.0068,0.0074,0.0004
1760000035220,51210,0.0212,-0.9771,0.0988,0.0239,-0.0156,-0.0273
1760000035240,51573,0.0240,-0.9829,0.0891,0.0367,-0.0477,-0.0060
1760000035260,51782,0.0153,-0.9892,0.1016,-0.0162,0.0274,0.0036
1760000035280,52073,0.0216,-0.9843,0.0987,0.0001,-0.0008,0.0134
1760000035300,52192,0.0139,-0.9762,0.1001,-0.0020,0.0086,-0.0030
1760000035320,52448,0.0220,-0.9920,0.1073,-0.0009,0.0300,-0.0010
1760000035340,52531,0.0239,-0.9859,0.1023,-0.0219,0.0125,0.0191
1760000035360,52439,0.0262,-0.9782,0.1007,-0.0101,-0.0162,-0.0043
1760000035380,52530,0.0204,-0.9782,0.0980,-0.0074,-0.0160,0.0017
1760000035400,52346,0.0293,-0.9860,0.0966,-0.0127,-0.0012,-0.0100
1760000035420,52361,0.0296,-0.9791,0.0963,0.0111,-0.0078,0.0068
1760000035440,51986,0.0235,-0.9806,0.0961,0.0252,0.0064,0.0073
1760000035460,51907,0.0165,-0.9809,0.1033,-0.0221,0.0429,-0.0076
1760000035480,51661,0.0139,-0.9781,0.0983,0.0033,0.0041,-0.0378
1760000035500,51243,0.0232,-0.9879,0.0931,-0.0037,-0.0107,-0.0089
1760000035520,50998,0.0111,-0.9764,0.1030,-0.0094,0.0046,0.0081
1760000035540,50588,0.0111,-0.9769,0.1009,-0.0239,-0.0416,-0.0031
1760000035560,50301,0.0246,-0.9759,0.1080,-0.0024,0.0275,-0.0172
1760000035580,49794,0.0187,-0.9840,0.1106,-0.0249,0.0257,-0.0016
1760000035600,49440,0.0229,-0.9773,0.0919,-0.0181,0.0249,0.0464
1760000035620,49149,0.0164,-0.9757,0.0894,0.0356,0.0306,-0.0120
1760000035640,48763,0.0150,-0.9747,0.1036,0.0192,-0.0096,0.0202
1760000035660,48573,0.0248,-0.9671,0.1059,0.0100,0.0258,0.0100
1760000035680,48213,0.0210,-0.9842,0.1077,-0.0040,0.0066,-0.0315
1760000035700,47910,0.0190,-0.9736,0.0956,0.0374,0.0232,0.0106
1760000035720,47919,0.0142,-0.9839,0.1051,0.0088,0.0278,-0.0036
1760000035740,47592,0.0167,-0.9791,0.1031,-0.0278,-0.0251,-0.0284
1760000035760,47495,0.0179,-0.9825,0.0917,0.0164,0.0205,-0.0049
1760000035780,47341,0.0199,-0.9791,0.0936,-0.0081,-0.0228,0.0299
1760000035800,47470,0.0079,-0.9780,0.1001,0.0040,0.0083,0.0059
1760000035820,47641,0.0228,-0.9833,0.1013,-0.0034,0.0185,-0.0094
1760000035840,47589,0.0215,-0.9814,0.1076,0.0034,0.0036,0.0314
1760000035860,47811,0.0148,-0.9789,0.0998,0.0130,0.0005,-0.0085
1760000035880,48086,0.0218,-0.9770,0.1028,0.0299,0.0261,0.0129
1760000035900,48324,0.0190,-0.9859,0.0970,0.0109,-0.0306,0.0060
1760000035920,48544,0.0166,-0.9862,0.1012,0.0225,0.0198,-0.0121
1760000035940,48950,0.0210,-0.9735,0.0902,-0.0446,-0.0084,0.0150
1760000035960,49319,0.0155,-0.9752,0.1085,0.0061,-0.0210,0.0119
1760000035980,49598,0.0249,-0.9793,0.1073,-0.0136,0.0053,0.0092
1760000036000,49898,0.0222,-0.9761,0.0931,0.0033,-0.0163,-0.0338
1760000036020,50413,0.0213,-0.9769,0.1001,-0.0461,0.0022,-0.0239
1760000036040,50729,0.0181,-0.9769,0.0899,-0.0004,0.0045,-0.0099
1760000036060,51195,0.0154,-0.9845,0.1016,0.0033,0.0126,-0.0267
1760000036080,51176,0.0267,-0.9835,0.0957,-0.0120,0.0168,0.0261
1760000036100,51722,0.0158,-0.9723,0.0989,-0.0157,-0.0028,-0.0112
1760000036120,51840,0.0195,-0.9861,0.0942,0.0146,-0.0257,0.0031
1760000036140,52184,0.0219,-0.9787,0.0998,0.0367,0.0050,0.0214
1760000036160,52231,0.0225,-0.9824,0.1102,-0.0191,0.0045,0.0031
1760000036180,52323,0.0177,-0.9811,0.1081,-0.0224,0.0013,0.0137
1760000036200,52319,0.0302,-0.9724,0.1056,0.0046,0.0118,0.0344
1760000036220,52557,0.0249,-0.9786,0.1057,-0.0169,0.0228,-0.0078
1760000036240,52630,0.0167,-0.9784,0.1024,-0.0226,-0.0211,-0.0250
1760000036260,52385,0.0209,-0.9814,0.0964,0.0134,-0.0206,0.0201
1760000036280,52243,0.0191,-0.9804,0.0986,-0.0026,-0.0092,-0.0055
1760000036300,52147,0.0296,-0.9783,0.0865,0.0072,0.0008,-0.0313
1760000036320,51883,0.0212,-0.9936,0.1006,-0.0222,0.0015,-0.0268
1760000036340,51631,0.0275,-0.9868,0.0925,0.0215,-0.0154,-0.0052
1760000036360,50952,0.0213,-0.9796,0.1015,0.0187,-0.0083,-0.0070
1760000036380,50774,0.0241,-0.9753,0.0972,-0.0015,-0.0292,0.0333
1760000036400,50622,0.0199,-0.9915,0.1060,-0.0241,0.0075,-0.0462
1760000036420,50235,0.0278,-0.9754,0.1036,0.0012,0.0163,-0.0071
1760000036440,49652,0.0168,-0.9894,0.0995,0.0306,-0.0124,-0.0006
1760000036460,49383,0.0184,-0.9803,0.1057,0.0102,-0.0185,-0.0015
1760000036480,49116,0.0286,-0.9739,0.1082,-0.0347,0.0077,0.0324
1760000036500,48753,0.0141,-0.9747,0.1043,0.0108,-0.0055,0.0030
1760000036520,48406,0.0180,-0.9822,0.0934,-0.0043,0.0032,0.0097
1760000036540,48193,0.0189,-0.9850,0.1050,-0.0061,-0.0194,0.0059
1760000036560,47857,0.0170,-0.9826,0.1013,-0.0039,0.0152,0.0097
1760000036580,47747,0.0164,-0.9780,0.1033,-0.0130,0.0323,-0.0064
1760000036600,47708,0.0217,-0.9865,0.1044,0.0146,-0.0176,0.0278
1760000036620,47421,0.0216,-0.9843,0.0979,-0.0156,-0.0169,0.0211
1760000036640,47490,0.0296,-0.9848,0.1011,-0.0042,0.0139,-0.0219
1760000036660,47453,0.0226,-0.9829,0.1052,0.0284,0.0004,0.0328
1760000036680,47450,0.0185,-0.9848,0.1004,0.0040,0.0038,0.0022
1760000036700,47713,0.0173,-0.9760,0.0935,-0.0295,0.0317,0.0097
1760000036720,47824,0.0326,-0.9732,0.1048,-0.0266,0.0238,-0.0003
1760000036740,48181,0.0158,-0.9847,0.0979,0.0126,-0.0104,-0.0087
1760000036760,48277,0.0151,-0.9764,0.0934,0.0083,0.0008,0.0005
1760000036780,48668,0.0199,-0.9711,0.0963,0.0040,0.0103,0.0049
1760000036800,48940,0.0187,-0.9806,0.0958,-0.0224,0.0126,-0.0006
1760000036820,49386,0.0196,-0.9822,0.1003,0.0065,0.0056,0.0300
1760000036840,49684,0.0163,-0.9822,0.1001,-0.0234,0.0080,-0.0286
1760000036860,50100,0.0174,-0.9791,0.0971,-0.0280,0.0006,-0.0094
1760000036880,50506,0.0257,-0.9821,0.0926,-0.0108,0.0389,-0.0175
1760000036900,50807,0.0124,-0.9876,0.1030,-0.0021,0.0077,0.0028
1760000036920,51078,0.0209,-0.9782,0.0921,0.0294,0.0067,0.0244
1760000036940,51284,0.0140,-0.9836,0.0958,-0.0060,-0.0235,0.0017
1760000036960,51592,0.0285,-0.9805,0.0934,-0.0029,-0.0121,0.0065
1760000036980,51989,0.0217,-0.9805,0.1097,0.0311,-0.0141,0.0118
1760000037000,52259,0.0201,-0.9792,0.0934,0.0001,0.0129,-0.0395
1760000037020,52304,0.0241,-0.9762,0.1020,-0.0022,-0.0127,0.0120
1760000037040,52453,0.0207,-0.9739,0.0985,-0.0079,0.0049,-0.0128
1760000037060,52614,0.0244,-0.9769,0.0935,0.0411,0.0179,-0.0242
1760000037080,52368,0.0163,-0.9779,0.1042,0.0172,-0.0140,0.0066
1760000037100,52496,0.0201,-0.9798,0.1026,-0.0216,-0.0608,-0.0064
1760000037120,52298,0.0240,-0.9785,0.1108,-0.0061,0.0510,0.0272
1760000037140,52253,0.0182,-0.9739,0.1011,0.0429,-0.0084,-0.0100
