t,ppg,ax,ay,az,gx,gy,gz
1760000000000,50187,0.0167,-0.9780,0.1007,0.0167,-0.0280,-0.0083
1760000000020,50460,0.0146,-0.9842,0.0974,-0.0057,-0.0181,0.0084
1760000000040,50973,0.0040,-0.9740,0.0980,-0.0149,0.0054,0.0046
1760000000060,51474,0.0157,-0.9790,0.0923,0.0289,-0.0253,-0.0041
1760000000080,51859,0.0211,-0.9812,0.1024,-0.0727,-0.0047,-0.0058
1760000000100,52120,0.0270,-0.9855,0.0989,-0.0433,0.0029,-0.0352
1760000000120,52241,0.0312,-0.9771,0.0993,0.0008,-0.0317,-0.0239
1760000000140,52510,0.0086,-0.9793,0.0906,-0.0002,-0.0252,0.0329
1760000000160,52558,0.0167,-0.9902,0.0954,-0.0038,-0.0228,0.0031
1760000000180,52447,0.0191,-0.9829,0.1033,-0.0086,0.0146,-0.0091
1760000000200,52286,0.0179,-0.9860,0.0998,-0.0155,-0.0217,-0.0052
1760000000220,51908,0.0084,-0.9809,0.0986,-0.0055,0.0138,-0.0291
1760000000240,51513,0.0182,-0.9801,0.0983,-0.0092,-0.0131,0.0060
1760000000260,51178,0.0248,-0.9762,0.1023,-0.0119,0.0101,0.0400
1760000000280,50407,0.0237,-0.9754,0.1009,0.0141,0.0264,0.0431
1760000000300,50099,0.0280,-0.9787,0.1038,0.0020,0.0045,-0.0108
1760000000320,49530,0.0270,-0.9811,0.1010,0.0114,-0.0007,0.0179
1760000000340,49000,0.0138,-0.9855,0.1034,0.0118,0.0214,0.0042
1760000000360,48544,0.0118,-0.9731,0.0952,0.0203,-0.0238,-0.0141
1760000000380,48152,0.0177,-0.9837,0.1044,0.0130,0.0074,-0.0074
1760000000400,47766,0.0175,-0.9828,0.0997,0.0150,-0.0039,-0.0164
1760000000420,47571,0.0263,-0.9793,0.1011,0.0053,0.0116,0.0025
1760000000440,47607,0.0240,-0.9943,0.0993,0.0591,-0.0260,0.0024
1760000000460,47600,0.0200,-0.9733,0.0936,-0.0252,-0.0039,-0.0149
1760000000480,47536,0.0228,-0.9787,0.1000,-0.0082,0.0053,-0.0024
1760000000500,47776,0.0226,-0.9781,0.1004,0.0139,-0.0222,-0.0029
1760000000520,48100,0.0267,-0.9775,0.1106,0.0315,-0.0074,-0.0219
1760000000540,48569,0.0186,-0.9808,0.0947,0.0120,0.0037,0.0081
1760000000560,49008,0.0155,-0.9912,0.0986,-0.0127,-0.0106,0.0192
1760000000580,49472,0.0275,-0.9791,0.1034,0.0101,0.0161,-0.0252
1760000000600,50087,0.0205,-0.9849,0.1031,0.0069,0.0257,0.0146
1760000000620,50549,0.0118,-0.9716,0.1074,0.0155,0.0092,0.0244
1760000000640,50947,0.0235,-0.9799,0.0950,0.0074,0.0071,0.0341
1760000000660,51545,0.0120,-0.9898,0.0996,-0.0042,-0.0187,-0.0292
1760000000680,51842,0.0142,-0.9835,0.1043,0.0048,-0.0151,-0.0225
1760000000700,52150,0.0287,-0.9825,0.1087,-0.0157,-0.0042,0.0139
1760000000720,52316,0.0203,-0.9868,0.1033,0.0232,-0.0130,0.0037
1760000000740,52454,0.0092,-0.9663,0.1031,0.0165,0.0078,0.0035
1760000000760,52676,0.0109,-0.9816,0.0979,-0.0042,0.0139,-0.0144
1760000000780,52271,0.0144,-0.9777,0.1048,0.0162,0.0319,-0.0104
1760000000800,52244,0.0234,-0.9808,0.0962,0.0176,-0.0136,-0.0059
1760000000820,51780,0.0287,-0.9803,0.0975,-0.0050,-0.0046,0.0018
1760000000840,51333,0.0142,-0.9775,0.1054,-0.0203,0.0022,-0.0116
1760000000860,50835,0.0184,-0.9854,0.1044,-0.0042,-0.0008,-0.0293
1760000000880,50531,0.0103,-0.9789,0.1069,-0.0243,0.0170,0.0281
1760000000900,49984,0.0256,-0.9796,0.0975,-0.0402,-0.0216,-0.0298
1760000000920,49671,0.0213,-0.9809,0.0932,0.0344,-0.0233,0.0297
1760000000940,49070,0.0204,-0.9833,0.0998,-0.0266,0.0130,0.0337
1760000000960,48602,0.0252,-0.9835,0.1015,-0.0205,-0.0091,0.0146
1760000000980,48343,0.0203,-0.9798,0.0905,0.0035,-0.0182,-0.0281
1760000001000,47716,0.0207,-0.9820,0.1034,-0.0047,-0.0001,0.0294
1760000001020,47687,0.0238,-0.9726,0.1011,-0.0199,-0.0160,-0.0314
1760000001040,47542,0.0180,-0.9774,0.1042,-0.0163,0.0037,0.0255
1760000001060,47520,0.0247,-0.9810,0.0952,-0.0046,-0.0379,0.0142
1760000001080,47581,0.0268,-0.9862,0.1006,0.0069,-0.0041,0.0077
1760000001100,47774,0.0146,-0.9871,0.0972,-0.0164,0.0048,-0.0074
1760000001120,48089,0.0163,-0.9896,0.0981,0.0083,-0.0269,-0.0052
1760000001140,48585,0.0165,-0.9790,0.0978,0.0496,0.0282,0.0239
1760000001160,48928,0.0233,-0.9808,0.1018,-0.0116,0.0032,-0.0155
1760000001180,49504,0.0289,-0.9869,0.0933,0.0102,0.0161,-0.0076
1760000001200,50048,0.0222,-0.9772,0.1070,-0.0132,0.0134,0.0041
1760000001220,50464,0.0225,-0.9866,0.0925,0.0218,-0.0225,0.0344
1760000001240,51101,0.0173,-0.9845,0.0887,-0.0016,-0.0333,0.0319
1760000001260,51332,0.0203,-0.9939,0.0982,0.0270,-0.0092,-0.0168
1760000001280,51819,0.0219,-0.9755,0.0988,-0.0419,0.0062,0.0198
1760000001300,52353,0.0208,-0.9791,0.0972,0.0152,0.0360,-0.0205
1760000001320,52384,0.0147,-0.9835,0.0990,0.0100,-0.0172,-0.0062
1760000001340,52598,0.0226,-0.9765,0.1020,-0.0040,0.0085,0.0105
1760000001360,52486,0.0252,-0.9800,0.1046,0.0003,0.0148,-0.0139
1760000001380,52331,0.0140,-0.9739,0.1026,0.0042,0.0125,-0.0171
1760000001400,52173,0.0174,-0.9896,0.0986,-0.0180,0.0291,-0.0154
1760000001420,51807,0.0250,-0.9801,0.0931,0.0046,-0.0155,0.0348
1760000001440,51382,0.0162,-0.9941,0.0965,0.0382,-0.0027,-0.0198
1760000001460,51040,0.0185,-0.9802,0.1127,0.0412,0.0326,0.0340
1760000001480,50444,0.0100,-0.9762,0.1020,0.0008,-0.0025,0.0146
1760000001500,50046,0.0213,-0.9775,0.0989,-0.0077,0.0285,-0.0052
1760000001520,49643,0.0233,-0.9797,0.1057,-0.0102,-0.0039,-0.0071
1760000001540,48983,0.0235,-0.9694,0.1027,-0.0219,-0.0170,-0.0371
1760000001560,48590,0.0245,-0.9783,0.1018,0.0107,0.0087,0.0132
1760000001580,48160,0.0149,-0.9752,0.1068,-0.0336,-0.0048,-0.0233
1760000001600,47876,0.0185,-0.9727,0.1057,-0.0096,-0.0098,-0.0121
1760000001620,47669,0.0152,-0.9778,0.0928,0.0214,0.0097,-0.0238
1760000001640,47449,0.0207,-0.9786,0.0853,0.0041,0.0309,-0.0092
1760000001660,47402,0.0262,-0.9788,0.1010,0.0126,-0.0252,-0.0138
1760000001680,47529,0.0142,-0.9817,0.0946,0.0329,0.0102,0.0168
1760000001700,47699,0.0189,-0.9808,0.1008,0.0090,-0.0165,-0.0189
1760000001720,48220,0.0315,-0.9694,0.0985,-0.0162,0.0037,0.0095
1760000001740,48675,0.0188,-0.9838,0.1053,-0.0149,-0.0177,0.0108
1760000001760,48967,0.0146,-0.9814,0.0979,-0.0047,-0.0152,0.0118
1760000001780,49451,0.0169,-0.9746,0.0952,0.0153,0.0119,-0.0062
1760000001800,50017,0.0124,-0.9788,0.0947,-0.0177,0.0052,-0.0151
1760000001820,50530,0.0221,-0.9747,0.1020,0.0210,-0.0154,-0.0077
1760000001840,51069,0.0260,-0.9777,0.0973,-0.0219,-0.0195,0.0227
1760000001860,51389,0.0188,-0.9768,0.1022,-0.0144,0.0403,0.0032
1760000001880,51880,0.0241,-0.9816,0.1035,-0.0030,-0.0181,-0.0194
1760000001900,52195,0.0205,-0.9808,0.0977,-0.0051,0.0160,0.0222
1760000001920,52357,0.0213,-0.9894,0.0942,-0.0143,-0.0185,0.0140
1760000001940,52317,0.0225,-0.9766,0.1111,-0.0100,0.0091,0.0298
1760000001960,52562,0.0152,-0.9818,0.0942,0.0013,0.0138,0.0274
1760000001980,52423,0.0245,-0.9747,0.0958,0.0135,0.0196,-0.0037
1760000002000,52088,0.0208,-0.9792,0.1035,-0.0361,-0.0075,0.0407
1760000002020,51962,0.0192,-0.9815,0.0986,-0.0195,-0.0092,-0.0008
1760000002040,51373,0.0196,-0.9787,0.0935,-0.0091,-0.0313,0.0008
1760000002060,51034,0.0174,-0.9796,0.1028,0.0137,-0.0269,-0.0065
1760000002080,50404,0.0105,-0.9749,0.1038,0.0255,0.0154,-0.0102
1760000002100,50017,0.0173,-0.9732,0.0881,0.0081,-0.0112,0.0144
1760000002120,49577,0.0168,-0.9732,0.1055,-0.0317,0.0367,-0.0238
1760000002140,48874,0.0247,-0.9836,0.1011,-0.0009,-0.0205,0.0322
1760000002160,48650,0.0204,-0.9721,0.1000,0.0052,-0.0061,-0.0266
1760000002180,48115,0.0152,-0.9779,0.1008,-0.0115,0.0258,0.0075
1760000002200,47982,0.0180,-0.9819,0.0963,0.0047,-0.0032,0.0007
1760000002220,47763,0.0240,-0.9831,0.1020,-0.0052,-0.0061,-0.0043
1760000002240,47519,0.0232,-0.9749,0.1002,-0.0162,-0.0000,-0.0038
1760000002260,47492,0.0139,-0.9807,0.0909,0.0254,0.0148,0.0151
1760000002280,47548,0.0212,-0.9736,0.0989,-0.0214,-0.0022,-0.0454
1760000002300,47910,0.0222,-0.9869,0.1035,0.0229,0.0129,0.0134
1760000002320,48266,0.0211,-0.9729,0.0990,-0.0137,-0.0064,-0.0209
1760000002340,48562,0.0165,-0.9782,0.1016,0.0327,0.0355,-0.0109
1760000002360,48969,0.0192,-0.9831,0.1091,0.0248,-0.0043,-0.0276
1760000002380,49429,0.0201,-0.9721,0.0936,0.0291,-0.0287,0.0070
1760000002400,49907,0.0179,-0.9920,0.1030,0.0006,-0.0209,-0.0427
1760000002420,50514,0.0199,-0.9873,0.1024,-0.0026,-0.0228,-0.0162
1760000002440,50820,0.0236,-0.9751,0.0990,-0.0254,-0.0227,-0.0063
1760000002460,51398,0.0214,-0.9844,0.1045,0.0236,-0.0121,-0.0165
1760000002480,51620,0.0201,-0.9782,0.0952,0.0221,-0.0137,-0.0239
1760000002500,52230,0.0222,-0.9904,0.0964,-0.0260,-0.0047,0.0033
1760000002520,52340,0.0207,-0.9756,0.0983,-0.0257,-0.0199,0.0164
1760000002540,52623,0.0191,-0.9782,0.0959,-0.0119,0.0190,-0.0106
1760000002560,52499,0.0205,-0.9743,0.1011,-0.0014,-0.0063,-0.0110
1760000002580,52458,0.0306,-0.9880,0.1050,-0.0202,-0.0127,-0.0065
1760000002600,52128,0.0180,-0.9831,0.1089,-0.0293,-0.0134,-0.0158
1760000002620,51872,0.0135,-0.9802,0.1005,0.0386,0.0126,-0.0015
1760000002640,51477,0.0291,-0.9806,0.0965,-0.0127,-0.0076,0.0173
1760000002660,50936,0.0170,-0.9802,0.0953,0.0126,-0.0081,0.0096
1760000002680,50560,0.0274,-0.9714,0.0956,-0.0265,-0.0234,0.0092
1760000002700,50041,0.0199,-0.9803,0.1075,0.0175,0.0042,0.0121
1760000002720,49360,0.0258,-0.9698,0.1007,-0.0088,0.0245,-0.0100
1760000002740,48990,0.0230,-0.9808,0.1035,-0.0387,-0.0487,0.0145
1760000002760,48572,0.0211,-0.9820,0.1002,0.0087,-0.0229,0.0050
1760000002780,48079,0.0304,-0.9782,0.1013,0.0201,0.0187,0.0189
1760000002800,47783,0.0207,-0.9756,0.1011,0.0024,-0.0113,0.0038
1760000002820,47732,0.0140,-0.9868,0.0940,-0.0308,0.0253,0.0374
1760000002840,47553,0.0205,-0.9731,0.1052,-0.0451,-0.0013,0.0487
1760000002860,47483,0.0165,-0.9831,0.1078,-0.0086,0.0084,0.0239
1760000002880,47637,0.0201,-0.9851,0.0939,0.0215,-0.0256,0.0214
1760000002900,47934,0.0275,-0.9809,0.0959,0.0020,0.0258,0.0109
1760000002920,48181,0.0194,-0.9754,0.0904,-0.0232,0.0310,0.0094
1760000002940,48587,0.0106,-0.9842,0.0979,-0.0019,0.0236,-0.0111
1760000002960,48994,0.0164,-0.9811,0.1019,0.0083,0.0198,-0.0248
1760000002980,49542,0.0223,-0.9839,0.1065,-0.0131,-0.0072,0.0106
1760000003000,50113,0.0180,-0.9727,0.1020,-0.0151,0.0145,0.0014
1760000003020,50463,0.0193,-0.9738,0.1018,-0.0048,0.0161,-0.0276
1760000003040,51069,0.0266,-0.9857,0.0946,-0.0169,-0.0040,-0.0147
1760000003060,51469,0.0151,-0.9786,0.1028,0.0090,-0.0112,0.0166
1760000003080,51736,0.0168,-0.9804,0.1063,-0.0075,0.0122,0.0324
1760000003100,52321,0.0286,-0.9839,0.1014,0.0101,0.0134,0.0103
1760000003120,52369,0.0203,-0.9867,0.1036,0.0065,-0.0112,0.0356
1760000003140,52488,0.0168,-0.9770,0.1022,0.0131,-0.0016,0.0153
1760000003160,52497,0.0260,-0.9783,0.0960,-0.0199,0.0115,0.0187
1760000003180,52263,0.0231,-0.9803,0.1014,-0.0157,-0.0217,-0.0113
1760000003200,52102,0.0180,-0.9794,0.1003,0.0375,-0.0184,-0.0084
1760000003220,51866,0.0231,-0.9850,0.0930,0.0053,0.0077,0.0117
1760000003240,51521,0.0125,-0.9747,0.0995,0.0413,-0.0074,-0.0422
1760000003260,51009,0.0210,-0.9784,0.1011,-0.0102,-0.0325,-0.0032
1760000003280,50496,0.0168,-0.9797,0.0986,-0.0395,-0.0162,-0.0163
1760000003300,49980,0.0281,-0.9801,0.1027,-0.0411,0.0240,-0.0104
1760000003320,49523,0.0147,-0.9801,0.1040,-0.0003,0.0045,-0.0147
1760000003340,48928,0.0214,-0.9809,0.1007,-0.0129,-0.0074,0.0149
1760000003360,48642,0.0181,-0.9831,0.1006,0.0183,0.0056,0.0214
1760000003380,48128,0.0153,-0.9892,0.1042,0.0052,-0.0125,0.0071
1760000003400,47745,0.0251,-0.9749,0.1058,-0.0084,0.0280,0.0163
1760000003420,47748,0.0117,-0.9754,0.1065,-0.0053,0.0189,0.0025
1760000003440,47629,0.0189,-0.9797,0.0943,0.0406,-0.0159,-0.0203
1760000003460,47444,0.0205,-0.9796,0.1022,0.0307,0.0197,-0.0281
1760000003480,47637,0.0192,-0.9762,0.1007,0.0264,0.0030,0.0387
1760000003500,47762,0.0258,-0.9754,0.0965,-0.0257,-0.0125,0.0077
1760000003520,48273,0.0129,-0.9813,0.0939,0.0158,0.0033,0.0010
1760000003540,48590,0.0216,-0.9727,0.0987,-0.0113,0.0005,-0.0004
1760000003560,49085,0.0182,-0.9825,0.0968,-0.0147,-0.0382,0.0029
1760000003580,49521,0.0209,-0.9837,0.1046,0.0143,0.0054,0.0128
1760000003600,49993,0.0221,-0.9773,0.0941,-0.0095,-0.0136,0.0080
1760000003620,50319,0.0215,-0.9800,0.0992,0.0080,-0.0289,0.0046
1760000003640,50959,0.0171,-0.9732,0.0984,0.0211,-0.0004,-0.0056
1760000003660,51441,0.0130,-0.9816,0.1007,0.0278,0.0150,0.0164
1760000003680,51786,0.0164,-0.9781,0.1026,-0.0205,0.0206,-0.0122
1760000003700,52187,0.0177,-0.9763,0.1043,0.0203,-0.0175,0.0032
1760000003720,52555,0.0201,-0.9776,0.1007,-0.0096,0.0340,0.0311
1760000003740,52434,0.0226,-0.9708,0.1024,0.0020,0.0197,0.0166
1760000003760,52393,0.0161,-0.9721,0.0973,-0.0005,-0.0123,0.0379
1760000003780,52282,0.0210,-0.9818,0.0986,-0.0236,-0.0154,-0.0036
1760000003800,52186,0.0110,-0.9795,0.0958,-0.0007,-0.0085,-0.0021
1760000003820,51840,0.0223,-0.9799,0.0918,-0.0470,-0.0282,0.0058
1760000003840,51338,0.0151,-0.9709,0.0983,-0.0038,0.0067,0.0127
1760000003860,50977,0.0205,-0.9900,0.1016,0.0114,-0.0341,0.0180
1760000003880,50670,0.0074,-0.9810,0.1069,0.0136,-0.0139,-0.0122
1760000003900,49970,0.0234,-0.9842,0.0927,0.0025,-0.0154,0.0332
1760000003920,49398,0.0213,-0.9811,0.0927,-0.0102,-0.0395,0.0074
1760000003940,48907,0.0138,-0.9878,0.1069,0.0101,-0.0200,-0.0035
1760000003960,48579,0.0228,-0.9800,0.0896,0.0334,-0.0028,0.0273
1760000003980,48040,0.0239,-0.9734,0.1057,-0.0245,-0.0051,0.0306
1760000004000,47769,0.0234,-0.9809,0.0925,0.0188,0.0216,0.0127
1760000004020,47642,0.0250,-0.9898,0.0998,0.0340,0.0097,0.0214
1760000004040,47494,0.0217,-0.9858,0.1026,0.0055,-0.0075,-0.0004
1760000004060,47521,0.0210,-0.9762,0.1050,-0.0428,0.0050,0.0224
1760000004080,47530,0.0191,-0.9682,0.0969,0.0199,0.0049,-0.0285
1760000004100,47815,0.0109,-0.9818,0.1045,0.0129,0.0059,-0.0107
1760000004120,48193,0.0261,-0.9762,0.1050,0.0091,0.0091,-0.0177
1760000004140,48651,0.0148,-0.9844,0.0965,-0.0145,0.0266,-0.0040
1760000004160,48963,0.0187,-0.9800,0.1066,0.0300,-0.0085,0.0342
1760000004180,49529,0.0216,-0.9735,0.1006,0.0066,0.0033,-0.0228
1760000004200,49901,0.0152,-0.9843,0.0971,-0.0107,0.0221,0.0004
1760000004220,50582,0.0217,-0.9842,0.0986,-0.0297,-0.0343,0.0076
1760000004240,51014,0.0204,-0.9752,0.0932,-0.0033,-0.0448,-0.0177
1760000004260,51515,0.0123,-0.9866,0.0984,0.0331,0.0148,-0.0041
1760000004280,51905,0.0203,-0.9821,0.0972,0.0083,-0.0028,0.0148
1760000004300,52119,0.0240,-0.9822,0.1057,0.0193,-0.0144,0.0452
1760000004320,52405,0.0165,-0.9863,0.1004,0.0022,-0.0155,-0.0221
1760000004340,52447,0.0146,-0.9833,0.0955,0.0082,-0.0509,0.0394
1760000004360,52449,0.0197,-0.9867,0.1053,-0.0034,-0.0075,-0.0188
1760000004380,52423,0.0222,-0.9833,0.1079,-0.0184,0.0233,0.0029
1760000004400,52054,0.0186,-0.9774,0.0978,0.0013,-0.0024,0.0078
1760000004420,51804,0.0290,-0.9785,0.1072,-0.0053,0.0035,-0.0198
1760000004440,51471,0.0274,-0.9786,0.0963,-0.0113,0.0112,-0.0037
1760000004460,51177,0.0211,-0.9800,0.1035,0.0321,-0.0304,-0.0143
1760000004480,50464,0.0101,-0.9809,0.0995,0.0165,0.0124,0.0127
1760000004500,50047,0.0178,-0.9659,0.1073,-0.0066,-0.0182,0.0098
1760000004520,49560,0.0224,-0.9762,0.1048,0.0082,-0.0185,-0.0099
1760000004540,48842,0.0245,-0.9827,0.1009,0.0419,-0.0160,0.0001
1760000004560,48466,0.0109,-0.9752,0.0995,-0.0014,0.0151,-0.0042
1760000004580,48196,0.0262,-0.9834,0.1021,0.0028,0.0208,0.0483
1760000004600,47756,0.0276,-0.9795,0.1033,0.0074,-0.0028,-0.0246
1760000004620,47622,0.0156,-0.9728,0.1022,-0.0114,-0.0074,0.0219
1760000004640,47401,0.0209,-0.9793,0.0955,0.0206,-0.0081,0.0206
1760000004660,47529,0.0169,-0.9806,0.1049,-0.0185,-0.0162,-0.0021
1760000004680,47665,0.0230,-0.9848,0.0941,-0.0021,-0.0047,0.0054
1760000004700,47714,0.0175,-0.9855,0.1078,-0.0407,-0.0184,-0.0106
1760000004720,48003,0.0177,-0.9838,0.0922,-0.0099,0.0253,0.0023
1760000004740,48635,0.0261,-0.9794,0.0984,-0.0435,-0.0404,0.0038
1760000004760,48987,0.0207,-0.9843,0.0985,-0.0214,0.0165,0.0014
1760000004780,49321,0.0170,-0.9741,0.0948,-0.0221,-0.0193,-0.0113
1760000004800,50006,0.0191,-0.9793,0.0971,0.0123,0.0272,-0.0176
1760000004820,50540,0.0214,-0.9792,0.0997,0.0089,-0.0044,-0.0126
1760000004840,50956,0.0236,-0.9826,0.0912,-0.0095,-0.0103,0.0166
1760000004860,51547,0.0146,-0.9740,0.1016,0.0299,-0.0102,0.0126
1760000004880,51914,0.0276,-0.9863,0.0998,0.0023,-0.0041,-0.0171
1760000004900,52145,0.0204,-0.9706,0.1002,0.0205,-0.0100,0.0044
1760000004920,52375,0.0204,-0.9870,0.1000,0.0506,-0.0001,-0.0253
1760000004940,52665,0.0223,-0.9783,0.0926,-0.0057,-0.0045,-0.0030
1760000004960,52408,0.0232,-0.9864,0.1055,-0.0003,-0.0085,-0.0302
1760000004980,52404,0.0218,-0.9872,0.1081,-0.0046,-0.0298,0.0235
1760000005000,52083,0.0156,-0.9870,0.0954,-0.0057,-0.0214,0.0049
1760000005020,51777,0.0194,-0.9911,0.0972,-0.0021,0.0115,-0.0077
1760000005040,51475,0.0215,-0.9844,0.1025,0.0051,-0.0112,-0.0246
1760000005060,51112,0.0251,-0.9792,0.1051,0.0276,-0.0034,0.0105
1760000005080,50562,0.0222,-0.9807,0.0976,0.0143,0.0037,0.0313
1760000005100,50034,0.0203,-0.9862,0.0993,0.0049,-0.0032,-0.0145
1760000005120,49254,0.0155,-0.9795,0.1076,-0.0228,0.0094,-0.0257
1760000005140,49053,0.0187,-0.9802,0.1016,-0.0134,-0.0135,0.0184
1760000005160,48419,0.0153,-0.9764,0.1033,-0.0163,-0.0155,0.0015
1760000005180,48285,0.0270,-0.9816,0.0972,-0.0025,-0.0347,0.0047
1760000005200,47800,0.0249,-0.9841,0.1014,-0.0125,-0.0112,0.0337
1760000005220,47550,0.0193,-0.9783,0.1091,0.0053,-0.0090,0.0047
1760000005240,47647,0.0226,-0.9769,0.1108,-0.0175,0.0220,-0.0167
1760000005260,47610,0.0225,-0.9769,0.1013,0.0050,-0.0570,-0.0238
1760000005280,47786,0.0204,-0.9807,0.1029,0.0182,0.0036,0.0200
1760000005300,47883,0.0171,-0.9792,0.1049,-0.0177,0.0009,-0.0148
1760000005320,48120,0.0124,-0.9795,0.0968,0.0210,-0.0069,0.0395
1760000005340,48618,0.0163,-0.9700,0.1005,0.0075,-0.0251,-0.0021
1760000005360,48930,0.0136,-0.9855,0.1064,-0.0111,-0.0011,-0.0161
1760000005380,49443,0.0172,-0.9808,0.0999,0.0157,-0.0023,-0.0037
1760000005400,49930,0.0225,-0.9782,0.0982,-0.0363,-0.0033,-0.0419
1760000005420,50629,0.0198,-0.9742,0.0986,0.0153,0.0313,0.0148
1760000005440,50931,0.0122,-0.9831,0.1005,-0.0249,-0.0395,-0.0146
1760000005460,51448,0.0103,-0.9814,0.1030,-0.0255,-0.0003,-0.0051
1760000005480,51866,0.0206,-0.9855,0.1018,0.0368,0.0041,-0.0310
1760000005500,52127,0.0283,-0.9818,0.0999,-0.0285,-0.0338,-0.0053
1760000005520,52391,0.0159,-0.9790,0.0973,-0.0441,-0.0091,0.0083
1760000005540,52651,0.0120,-0.9792,0.1009,0.0053,-0.0002,0.0269
1760000005560,52567,0.0160,-0.9848,0.0993,-0.0316,-0.0002,0.0124
1760000005580,52323,0.0179,-0.9841,0.1000,0.0067,-0.0226,0.0155
1760000005600,52078,0.0197,-0.9793,0.0945,-0.0092,-0.0238,0.0171
1760000005620,51836,0.0120,-0.9770,0.0975,0.0341,-0.0052,0.0103
1760000005640,51371,0.0182,-0.9814,0.1038,0.0237,-0.0004,-0.0052
1760000005660,50936,0.0161,-0.9813,0.1046,0.0330,-0.0071,-0.0155
1760000005680,50435,0.0236,-0.9737,0.1027,0.0304,-0.0010,-0.0099
1760000005700,50009,0.0136,-0.9816,0.0967,-0.0392,-0.0011,0.0093
1760000005720,49577,0.0188,-0.9748,0.0956,0.0221,-0.0158,-0.0043
1760000005740,48871,0.0280,-0.9824,0.1051,-0.0034,0.0036,0.0129
1760000005760,48432,0.0217,-0.9821,0.0948,0.0199,-0.0045,0.0245
1760000005780,48147,0.0180,-0.9831,0.0998,-0.0132,0.0179,-0.0123
1760000005800,47940,0.0180,-0.9806,0.0967,0.0447,-0.0413,0.0155
1760000005820,47707,0.0255,-0.9713,0.1073,-0.0331,0.0023,-0.0197
1760000005840,47495,0.0187,-0.9750,0.1039,-0.0010,-0.0167,0.0061
1760000005860,47516,0.0177,-0.9758,0.1064,-0.0170,0.0248,-0.0227
1760000005880,47581,0.0119,-0.9785,0.1083,-0.0251,-0.0140,-0.0218
1760000005900,47837,0.0250,-0.9875,0.1035,0.0371,-0.0070,-0.0018
1760000005920,48183,0.0100,-0.9848,0.1021,-0.0017,0.0130,-0.0209
1760000005940,48512,0.0158,-0.9860,0.1030,0.0322,-0.0195,0.0062
1760000005960,49027,0.0263,-0.9837,0.0921,0.0080,-0.0167,-0.0265
1760000005980,49449,0.0195,-0.9795,0.0986,-0.0425,-0.0445,0.0074
1760000006000,50100,0.0221,-0.9857,0.1043,-0.0204,0.0245,0.0048
1760000006020,50583,0.0156,-0.9773,0.0897,0.0240,-0.0256,-0.0022
1760000006040,51085,0.0244,-0.9795,0.0922,0.0260,-0.0072,-0.0280
1760000006060,51586,0.0332,-0.9817,0.1056,0.0198,0.0086,0.0132
1760000006080,51885,0.0100,-0.9837,0.0976,-0.0171,0.0015,-0.0013
1760000006100,52219,0.0310,-0.9836,0.1038,0.0356,-0.0003,-0.0321
1760000006120,52375,0.0262,-0.9769,0.0929,0.0062,-0.0027,-0.0094
1760000006140,52554,0.0074,-0.9726,0.1093,-0.0075,-0.0190,-0.0288
1760000006160,52519,0.0172,-0.9900,0.0898,0.0109,0.0188,-0.0265
1760000006180,52493,0.0173,-0.9794,0.0949,0.0205,-0.0045,-0.0013
1760000006200,52191,0.0163,-0.9732,0.1015,-0.0131,-0.0240,0.0034
1760000006220,51867,0.0190,-0.9859,0.1064,0.0018,0.0196,0.0114
1760000006240,51455,0.0165,-0.9866,0.1044,-0.0045,0.0275,0.0293
1760000006260,51060,0.0205,-0.9747,0.1087,-0.0013,0.0143,0.0328
1760000006280,50445,0.0235,-0.9806,0.1030,0.0198,-0.0017,0.0098
1760000006300,50139,0.0241,-0.9768,0.1010,0.0035,0.0230,-0.0024
1760000006320,49454,0.0177,-0.9812,0.1013,0.0014,-0.0021,0.0474
1760000006340,48908,0.0213,-0.9761,0.1005,0.0041,-0.0241,0.0038
1760000006360,48599,0.0162,-0.9776,0.1047,0.0028,0.0044,-0.0288
1760000006380,48240,0.0318,-0.9734,0.1087,-0.0539,-0.0142,-0.0097
1760000006400,47841,0.0172,-0.9894,0.0987,-0.0331,-0.0078,0.0171
1760000006420,47766,0.0226,-0.9763,0.0907,-0.0246,0.0118,0.0111
1760000006440,47522,0.0163,-0.9825,0.1020,0.0351,-0.0021,-0.0467
1760000006460,47691,0.0233,-0.9829,0.1071,0.0144,-0.0103,-0.0118
1760000006480,47688,0.0202,-0.9731,0.0969,-0.0151,-0.0270,-0.0052
1760000006500,47998,0.0087,-0.9780,0.0942,-0.0194,0.0391,-0.0407
1760000006520,48099,0.0083,-0.9837,0.1023,-0.0012,0.0192,0.0141
1760000006540,48487,0.0201,-0.9778,0.0978,-0.0456,-0.0102,0.0053
1760000006560,48996,0.0103,-0.9847,0.1031,-0.0174,0.0176,-0.0242
1760000006580,49326,0.0136,-0.9689,0.0958,-0.0144,0.0082,-0.0123
1760000006600,49832,0.0168,-0.9750,0.0914,-0.0283,-0.0053,0.0029
1760000006620,50461,0.0288,-0.9820,0.0933,0.0020,0.0031,-0.0011
1760000006640,50992,0.0301,-0.9726,0.1023,-0.0044,0.0143,0.0156
1760000006660,51490,0.0151,-0.9746,0.1026,-0.0250,0.0139,0.0200
1760000006680,51910,0.0184,-0.9811,0.0967,-0.0081,0.0237,0.0124
1760000006700,52079,0.0223,-0.9739,0.1077,0.0106,-0.0168,-0.0064
1760000006720,52325,0.0166,-0.9866,0.1003,0.0040,-0.0124,0.0379
1760000006740,52451,0.0241,-0.9698,0.0989,0.0385,0.0091,0.0387
1760000006760,52554,0.0152,-0.9836,0.0924,-0.0119,-0.0136,0.0054
1760000006780,52206,0.0103,-0.9822,0.0965,0.0167,-0.0074,-0.0158
1760000006800,52200,0.0114,-0.9786,0.1049,0.0177,-0.0163,0.0354
1760000006820,51890,0.0223,-0.9749,0.1070,-0.0194,-0.0001,-0.0037
1760000006840,51470,0.0225,-0.9766,0.0996,0.0168,0.0268,0.0062
1760000006860,50892,0.0097,-0.9821,0.0989,-0.0032,0.0012,-0.0020
1760000006880,50625,0.0197,-0.9826,0.0974,0.0123,-0.0145,-0.0062
1760000006900,49987,0.0156,-0.9885,0.0932,-0.0241,-0.0231,-0.0108
1760000006920,49505,0.0172,-0.9870,0.1056,-0.0028,-0.0439,-0.0039
1760000006940,48865,0.0177,-0.9827,0.1014,-0.0365,0.0022,0.0193
1760000006960,48412,0.0234,-0.9777,0.1012,0.0303,-0.0158,-0.0102
1760000006980,48168,0.0229,-0.9799,0.1016,-0.0054,0.0074,-0.0102
1760000007000,47854,0.0166,-0.9824,0.0918,-0.0148,-0.0017,-0.0150
1760000007020,47624,0.0255,-0.9810,0.0961,-0.0078,-0.0394,0.0170
1760000007040,47628,0.0139,-0.9656,0.0951,0.0165,0.0015,0.0320
1760000007060,47596,0.0254,-0.9730,0.1012,0.0125,-0.0191,0.0378
1760000007080,47623,0.0232,-0.9792,0.0962,-0.0200,-0.0109,-0.0063
1760000007100,47745,0.0204,-0.9774,0.1019,-0.0121,-0.0006,0.0263
1760000007120,48214,0.0185,-0.9820,0.1041,-0.0428,0.0120,-0.0223
1760000007140,48483,0.0182,-0.9758,0.0914,0.0107,0.0300,-0.0211
1760000007160,49021,0.0314,-0.9815,0.1042,-0.0091,0.0016,-0.0482
1760000007180,49461,0.0297,-0.9712,0.0968,0.0082,-0.0087,-0.0023
1760000007200,49932,0.0273,-0.9825,0.1078,-0.0068,0.0327,-0.0050
1760000007220,50417,0.0165,-0.9791,0.1048,0.0145,-0.0216,0.0319
1760000007240,51043,0.0214,-0.9832,0.1054,-0.0021,-0.0282,-0.0003
1760000007260,51502,0.0187,-0.9821,0.1015,-0.0273,0.0176,-0.0123
1760000007280,51747,0.0218,-0.9723,0.1060,-0.0254,-0.0171,0.0148
1760000007300,52192,0.0226,-0.9764,0.0914,0.0309,-0.0252,0.0050
1760000007320,52305,0.0225,-0.9732,0.1032,-0.0135,0.0012,0.0001
1760000007340,52470,0.0246,-0.9842,0.1030,-0.0202,0.0154,0.0170
1760000007360,52507,0.0262,-0.9724,0.1005,0.0071,-0.0247,-0.0176
1760000007380,52475,0.0098,-0.9719,0.1044,-0.0120,0.0051,-0.0141
1760000007400,52272,0.0168,-0.9728,0.1000,-0.0210,0.0198,0.0137
1760000007420,51907,0.0260,-0.9824,0.0925,-0.0015,0.0081,0.0073
1760000007440,51408,0.0227,-0.9862,0.1012,0.0143,0.0081,0.0131
1760000007460,50895,0.0189,-0.9812,0.0988,-0.0075,0.0040,0.0148
1760000007480,50594,0.0197,-0.9809,0.1021,-0.0307,0.0173,-0.0116
1760000007500,50070,0.0222,-0.9781,0.1073,0.0241,0.0132,-0.0183
1760000007520,49409,0.0178,-0.9813,0.0967,-0.0187,0.0261,-0.0365
1760000007540,49197,0.0200,-0.9800,0.0900,0.0037,0.0094,0.0194
1760000007560,48376,0.0164,-0.9721,0.1007,0.0273,0.0154,0.0263
1760000007580,48099,0.0240,-0.9794,0.0895,0.0074,-0.0138,0.0061
1760000007600,47832,0.0119,-0.9731,0.0993,0.0046,-0.0410,0.0019
1760000007620,47643,0.0230,-0.9863,0.1066,-0.0281,0.0115,0.0111
1760000007640,47574,0.0149,-0.9775,0.0894,0.0151,0.0014,0.0128
1760000007660,47539,0.0115,-0.9728,0.1012,0.0228,-0.0442,0.0222
1760000007680,47586,0.0154,-0.9767,0.1021,0.0444,0.0437,-0.0035
1760000007700,47883,0.0228,-0.9794,0.0952,-0.0133,-0.0277,-0.0158
1760000007720,48181,0.0263,-0.9917,0.0928,-0.0121,0.0071,0.0047
1760000007740,48655,0.0214,-0.9840,0.1052,-0.0413,-0.0066,0.0061
1760000007760,49038,0.0183,-0.9750,0.0997,-0.0219,0.0001,0.0168
1760000007780,49514,0.0249,-0.9770,0.1052,0.0179,-0.0437,-0.0107
1760000007800,50047,0.0137,-0.9786,0.0952,0.0106,-0.0258,0.0196
1760000007820,50377,0.0148,-0.9895,0.1116,0.0040,-0.0236,0.0019
1760000007840,51024,0.0244,-0.9844,0.0984,0.0183,0.0009,0.0335
1760000007860,51681,0.0267,-0.9757,0.1015,-0.0747,-0.0032,-0.0321
1760000007880,51733,0.0128,-0.9767,0.0950,0.0256,-0.0056,-0.0140
1760000007900,52201,0.0154,-0.9844,0.0979,0.0210,-0.0352,0.0200
1760000007920,52400,0.0213,-0.9863,0.0998,0.0213,0.0042,0.0090
1760000007940,52524,0.0201,-0.9810,0.1015,0.0223,0.0152,-0.0315
1760000007960,52391,0.0194,-0.9777,0.0942,0.0046,-0.0210,0.0320
1760000007980,52504,0.0215,-0.9737,0.0974,-0.0208,-0.0046,0.0053
1760000008000,52135,0.0208,-0.9853,0.0987,0.0171,0.0081,-0.0150
1760000008020,51879,0.0240,-0.9813,0.1012,0.0025,0.0196,0.0084
1760000008040,51556,0.0210,-0.9766,0.0982,-0.0072,-0.0237,0.0098
1760000008060,51093,0.0253,-0.9794,0.1020,0.0060,-0.0187,0.0050
1760000008080,50538,0.0227,-0.9826,0.1125,0.0168,-0.0038,0.0227
1760000008100,50015,0.0228,-0.9824,0.1052,-0.0013,-0.0010,0.0079
1760000008120,49459,0.0260,-0.9812,0.1048,-0.0041,-0.0231,0.0076
1760000008140,49000,0.0220,-0.9824,0.0940,0.0190,0.0240,-0.0036
1760000008160,48529,0.0131,-0.9782,0.0946,0.0051,0.0244,-0.0082
1760000008180,48110,0.0153,-0.9830,0.0958,0.0158,-0.0127,0.0142
1760000008200,47905,0.0196,-0.9805,0.1001,-0.0096,0.0351,-0.0303
1760000008220,47619,0.0266,-0.9839,0.1095,-0.0125,0.0077,0.0270
1760000008240,47627,0.0210,-0.9734,0.0954,0.0196,-0.0172,0.0023
1760000008260,47456,0.0196,-0.9779,0.1059,0.0255,0.0274,0.0209
1760000008280,47607,0.0296,-0.9786,0.0997,-0.0262,-0.0136,-0.0042
1760000008300,47839,0.0122,-0.9800,0.0971,-0.0016,-0.0044,-0.0012
1760000008320,48174,0.0240,-0.9848,0.1006,-0.0025,0.0468,0.0095
1760000008340,48559,0.0199,-0.9844,0.1062,-0.0297,-0.0284,-0.0007
1760000008360,48886,0.0257,-0.9731,0.0988,-0.0303,0.0327,0.0335
1760000008380,49485,0.0234,-0.9811,0.0984,-0.0072,-0.0380,0.0292
1760000008400,50044,0.0217,-0.9784,0.1024,0.0080,0.0495,-0.0186
1760000008420,50459,0.0225,-0.9869,0.1045,-0.0029,-0.0426,-0.0085
1760000008440,50951,0.0305,-0.9840,0.1038,-0.0081,0.0060,-0.0187
1760000008460,51570,0.0237,-0.9852,0.1062,0.0096,-0.0162,-0.0226
1760000008480,51856,0.0218,-0.9838,0.0994,0.0180,-0.0352,0.0311
1760000008500,52220,0.0149,-0.9784,0.0904,0.0104,0.0398,0.0263
1760000008520,52452,0.0174,-0.9711,0.0986,-0.0100,-0.0226,-0.0056
1760000008540,52384,0.0209,-0.9836,0.0965,0.0073,0.0313,0.0002
1760000008560,52440,0.0177,-0.9769,0.0926,0.0024,-0.0264,-0.0098
1760000008580,52488,0.0197,-0.9738,0.1023,-0.0220,0.0243,-0.0283
1760000008600,52088,0.0212,-0.9809,0.1055,0.0324,0.0193,0.0003
1760000008620,51890,0.0230,-0.9765,0.0966,0.0242,-0.0073,0.0119
1760000008640,51375,0.0209,-0.9849,0.0996,-0.0547,-0.0164,-0.0196
1760000008660,51114,0.0128,-0.9767,0.0929,0.0218,0.0314,-0.0018
1760000008680,50519,0.0184,-0.9830,0.0929,0.0187,0.0287,0.0194
1760000008700,49839,0.0173,-0.9783,0.1002,0.0031,-0.0558,-0.0010
1760000008720,49413,0.0244,-0.9742,0.1063,-0.0101,0.0130,0.0121
1760000008740,48870,0.0129,-0.9836,0.1052,0.0236,-0.0250,-0.0124
1760000008760,48491,0.0249,-0.9754,0.1031,-0.0255,0.0040,-0.0275
1760000008780,48148,0.0041,-0.9850,0.1039,0.0243,-0.0013,-0.0350
1760000008800,47864,0.0234,-0.9820,0.0933,-0.0164,0.0330,-0.0145
1760000008820,47644,0.0166,-0.9793,0.0996,-0.0522,-0.0045,-0.0258
1760000008840,47673,0.0269,-0.9735,0.0932,-0.0012,-0.0080,-0.0094
1760000008860,47598,0.0172,-0.9821,0.1043,-0.0156,-0.0066,-0.0410
1760000008880,47621,0.0233,-0.9822,0.0988,0.0053,0.0009,0.0076
1760000008900,47685,0.0158,-0.9763,0.0961,-0.0074,-0.0103,0.0169
1760000008920,48134,0.0277,-0.9823,0.0992,0.0270,0.0192,-0.0393
1760000008940,48548,0.0187,-0.9865,0.0998,0.0275,-0.0326,0.0066
1760000008960,48975,0.0347,-0.9666,0.0955,-0.0099,0.0087,-0.0322
1760000008980,49525,0.0195,-0.9807,0.1020,0.0503,-0.0074,-0.0016
1760000009000,49875,0.0162,-0.9779,0.0987,-0.0024,-0.0093,-0.0160
1760000009020,50443,0.0231,-0.9796,0.0932,0.0153,0.0161,-0.0013
1760000009040,50996,0.0275,-0.9865,0.1019,0.0198,-0.0269,-0.0172
1760000009060,51502,0.0176,-0.9863,0.0971,-0.0198,-0.0018,-0.0145
1760000009080,51888,0.0153,-0.9814,0.1008,0.0123,-0.0227,-0.0118
1760000009100,52112,0.0257,-0.9777,0.0967,-0.0009,0.0021,-0.0047
1760000009120,52487,0.0113,-0.9702,0.1073,0.0173,-0.0070,-0.0337
1760000009140,52545,0.0285,-0.9766,0.1070,0.0021,0.0210,0.0063
1760000009160,52461,0.0140,-0.9825,0.1030,0.0136,0.0091,0.0034
1760000009180,52435,0.0225,-0.9778,0.0981,0.0051,-0.0027,-0.0164
1760000009200,52182,0.0137,-0.9816,0.0920,-0.0189,0.0236,0.0378
1760000009220,51895,0.0179,-0.9912,0.0983,0.0097,-0.0014,-0.0125
1760000009240,51521,0.0169,-0.9787,0.0985,-0.0088,0.0352,0.0287
1760000009260,51076,0.0150,-0.9760,0.1016,0.0134,0.0230,-0.0223
1760000009280,50545,0.0214,-0.9774,0.1021,-0.0050,0.0239,-0.0179
1760000009300,50177,0.0252,-0.9772,0.0938,-0.0254,-0.0279,0.0041
1760000009320,49518,0.0233,-0.9793,0.0991,-0.0431,-0.0116,0.0115
1760000009340,48959,0.0256,-0.9801,0.1063,0.0266,-0.0565,-0.0117
1760000009360,48640,0.0268,-0.9805,0.1013,0.0187,0.0291,0.0276
1760000009380,48075,0.0171,-0.9844,0.0983,0.0183,0.0099,0.0048
1760000009400,47841,0.0310,-0.9766,0.0978,0.0107,-0.0034,-0.0052
1760000009420,47589,0.0072,-0.9865,0.0993,-0.0302,-0.0202,-0.0319
1760000009440,47345,0.0204,-0.9813,0.0922,0.0030,0.0352,0.0068
1760000009460,47505,0.0128,-0.9774,0.1032,-0.0340,-0.0092,0.0206
1760000009480,47616,0.0066,-0.9793,0.1006,0.0034,-0.0042,0.0164
1760000009500,47873,0.0312,-0.9793,0.1019,0.0013,-0.0200,0.0001
1760000009520,48142,0.0100,-0.9682,0.1015,0.0175,0.0080,0.0005
1760000009540,48579,0.0279,-0.9757,0.0979,0.0164,0.0154,-0.0126
1760000009560,49009,0.0222,-0.9811,0.1014,-0.0100,-0.0163,-0.0092
1760000009580,49402,0.0345,-0.9743,0.1000,-0.0265,0.0186,0.0221
1760000009600,49877,0.0184,-0.9731,0.1027,0.0344,-0.0112,-0.0070
1760000009620,50475,0.0148,-0.9855,0.1003,0.0433,-0.0016,0.0071
1760000009640,50845,0.0219,-0.9812,0.0963,-0.0339,0.0250,0.0202
1760000009660,51436,0.0160,-0.9797,0.0952,-0.0374,-0.0195,0.0317
1760000009680,51735,0.0201,-0.9809,0.0930,0.0239,0.0462,0.0131
1760000009700,52181,0.0257,-0.9752,0.0867,0.0142,0.0041,0.0075
1760000009720,52446,0.0203,-0.9782,0.0956,-0.0165,-0.0020,-0.0067
1760000009740,52613,0.0264,-0.9800,0.1041,-0.0062,-0.0287,0.0019
1760000009760,52473,0.0232,-0.9798,0.0997,0.0026,0.0226,0.0054
1760000009780,52387,0.0262,-0.9865,0.0877,-0.0082,0.0145,-0.0292
1760000009800,52078,0.0260,-0.9826,0.1038,0.0003,0.0007,0.0099
1760000009820,51725,0.0228,-0.9843,0.0980,-0.0258,-0.0028,0.0217
1760000009840,51584,0.0259,-0.9804,0.0986,-0.0089,-0.0301,0.0540
1760000009860,51098,0.0258,-0.9803,0.0997,0.0013,0.0031,-0.0321
1760000009880,50527,0.0218,-0.9873,0.1051,-0.0116,0.0242,-0.0049
1760000009900,49953,0.0175,-0.9813,0.1018,-0.0216,0.0171,-0.0127
1760000009920,49410,0.0231,-0.9882,0.1032,-0.0011,0.0033,-0.0068
1760000009940,48946,0.0226,-0.9763,0.0964,0.0024,0.0146,-0.0090
1760000009960,48586,0.0179,-0.9705,0.1008,-0.0042,0.0031,-0.0257
1760000009980,48047,0.0138,-0.9756,0.1040,-0.0007,-0.0432,-0.0409
1760000010000,47795,0.0292,-0.9738,0.1042,-0.0325,-0.0069,-0.0311
1760000010020,47607,0.0279,-0.9739,0.0925,-0.0056,0.0016,-0.0236
1760000010040,47598,0.0140,-0.9801,0.1022,-0.0066,-0.0425,-0.0090
1760000010060,47574,0.0145,-0.9910,0.0985,-0.0054,-0.0230,0.0001
1760000010080,47657,0.0268,-0.9848,0.0979,-0.0077,-0.0063,0.0157
1760000010100,47795,0.0146,-0.9711,0.0869,-0.0292,0.0076,-0.0322
1760000010120,48262,0.0183,-0.9741,0.1024,-0.0245,0.0029,0.0560
1760000010140,48501,0.0182,-0.9892,0.1055,0.0005,-0.0144,0.0031
1760000010160,49000,0.0194,-0.9719,0.0871,-0.0024,0.0040,-0.0085
1760000010180,49495,0.0258,-0.9818,0.1030,0.0293,-0.0253,-0.0025
1760000010200,50048,0.0326,-0.9726,0.0927,0.0217,-0.0420,0.0037
1760000010220,50657,0.0172,-0.9780,0.0986,-0.0232,-0.0003,0.0243
1760000010240,50930,0.0238,-0.9793,0.0915,-0.0038,0.0185,0.0071
1760000010260,51665,0.0236,-0.9804,0.0959,0.0179,0.0217,0.0187
1760000010280,51826,0.0172,-0.9820,0.1072,0.0096,-0.0036,-0.0070
1760000010300,52007,0.0191,-0.9954,0.0999,0.0130,0.0217,-0.0044
1760000010320,52339,0.0143,-0.9809,0.0995,0.0078,0.0035,0.0052
1760000010340,52463,0.0182,-0.9781,0.0951,-0.0224,0.0103,-0.0312
1760000010360,52492,0.0168,-0.9924,0.1042,-0.0342,0.0150,-0.0166
1760000010380,52358,0.0215,-0.9808,0.0947,-0.0265,0.0034,-0.0062
1760000010400,52113,0.0172,-0.9808,0.0987,-0.0228,0.0044,-0.0022
1760000010420,51922,0.0194,-0.9865,0.0958,0.0144,-0.0193,-0.0190
1760000010440,51391,0.0094,-0.9773,0.0996,-0.0259,0.0031,0.0110
1760000010460,51061,0.0222,-0.9755,0.0990,0.0070,-0.0100,-0.0319
1760000010480,50527,0.0229,-0.9835,0.1073,0.0232,0.0210,0.0147
1760000010500,49980,0.0209,-0.9734,0.1018,-0.0110,0.0196,0.0076
1760000010520,49446,0.0215,-0.9794,0.0983,-0.0085,-0.0132,0.0150
1760000010540,49034,0.0163,-0.9772,0.0962,-0.0167,-0.0051,0.0122
1760000010560,48404,0.0144,-0.9779,0.0969,-0.0081,-0.0165,-0.0046
1760000010580,48119,0.0205,-0.9852,0.0999,-0.0416,0.0264,0.0277
1760000010600,47890,0.0190,-0.9856,0.0917,0.0284,0.0077,-0.0082
1760000010620,47708,0.0223,-0.9755,0.1032,-0.0100,-0.0091,0.0058
1760000010640,47477,0.0225,-0.9832,0.1041,-0.0275,-0.0048,-0.0027
1760000010660,47503,0.0043,-0.9789,0.1047,-0.0217,-0.0067,-0.0166
1760000010680,47680,0.0207,-0.9754,0.0980,-0.0167,0.0021,0.0250
1760000010700,47848,0.0279,-0.9756,0.0978,-0.0044,0.0013,0.0064
1760000010720,48177,0.0235,-0.9837,0.1034,0.0450,0.0156,-0.0526
1760000010740,48674,0.0230,-0.9731,0.1033,-0.0153,-0.0004,-0.0157
1760000010760,48970,0.0170,-0.9734,0.0907,-0.0033,0.0151,-0.0041
1760000010780,49411,0.0159,-0.9830,0.1063,-0.0120,0.0168,-0.0177
1760000010800,49871,0.0159,-0.9750,0.0933,-0.0260,0.0113,-0.0013
1760000010820,50466,0.0250,-0.9753,0.0996,0.0324,0.0303,0.0027
1760000010840,51032,0.0203,-0.9778,0.1040,0.0190,0.0192,0.0182
1760000010860,51386,0.0233,-0.9699,0.1050,-0.0032,0.0267,-0.0061
1760000010880,51878,0.0200,-0.9728,0.1116,0.0150,0.0394,-0.0051
1760000010900,51981,0.0177,-0.9829,0.1003,-0.0049,-0.0100,0.0155
1760000010920,52393,0.0149,-0.9783,0.1020,0.0077,0.0186,-0.0010
1760000010940,52486,0.0267,-0.9812,0.0994,0.0273,0.0112,-0.0002
1760000010960,52541,0.0217,-0.9897,0.0947,-0.0091,-0.0024,-0.0167
1760000010980,52197,0.0183,-0.9829,0.0941,-0.0143,-0.0108,-0.0139
1760000011000,52084,0.0183,-0.9802,0.0972,-0.0113,-0.0444,-0.0137
1760000011020,51887,0.0199,-0.9756,0.0956,-0.0166,0.0100,0.0199
1760000011040,51476,0.0235,-0.9850,0.1058,-0.0139,0.0050,0.0130
1760000011060,51026,0.0142,-0.9842,0.1006,0.0171,-0.0044,-0.0081
1760000011080,50445,0.0162,-0.9814,0.1063,0.0152,0.0168,-0.0083
1760000011100,50039,0.0105,-0.9746,0.1032,-0.0204,0.0109,-0.0297
1760000011120,49424,0.0203,-0.9812,0.1049,0.0205,0.0168,-0.0298
1760000011140,48986,0.0307,-0.9778,0.0966,-0.0213,-0.0099,0.0302
1760000011160,48580,0.0313,-0.9778,0.1054,-0.0147,0.0515,0.0025
1760000011180,48249,0.0296,-0.9747,0.1070,-0.0128,0.0135,0.0089
1760000011200,47889,0.0239,-0.9788,0.0986,0.0160,0.0107,-0.0139
1760000011220,47624,0.0114,-0.9773,0.0951,0.0043,-0.0052,-0.0304
1760000011240,47366,0.0233,-0.9798,0.0920,-0.0117,-0.0050,-0.0027
1760000011260,47381,0.0149,-0.9844,0.0926,-0.0086,-0.0010,0.0224
1760000011280,47774,0.0143,-0.9803,0.0994,-0.0067,0.0021,0.0230
1760000011300,47763,0.0198,-0.9867,0.1044,0.0175,0.0052,-0.0125
1760000011320,48144,0.0174,-0.9807,0.1055,0.0181,0.0066,-0.0243
1760000011340,48519,0.0271,-0.9853,0.1000,0.0429,-0.0328,-0.0151
1760000011360,49050,0.0230,-0.9833,0.1049,0.0058,-0.0045,-0.0029
1760000011380,49518,0.0202,-0.9859,0.0935,-0.0033,0.0087,0.0246
1760000011400,49885,0.0141,-0.9789,0.1057,-0.0080,0.0009,0.0033
1760000011420,50468,0.0195,-0.9838,0.1009,-0.0487,0.0137,0.0071
1760000011440,51012,0.0162,-0.9799,0.1050,-0.0127,-0.0369,-0.0082
1760000011460,51431,0.0184,-0.9798,0.0952,-0.0264,0.0017,0.0046
1760000011480,51788,0.0123,-0.9791,0.0996,0.0256,-0.0212,0.0019
1760000011500,52189,0.0209,-0.9813,0.0957,0.0072,-0.0102,-0.0046
1760000011520,52254,0.0176,-0.9815,0.1012,-0.0140,-0.0107,0.0152
1760000011540,52457,0.0226,-0.9747,0.0986,0.0053,-0.0135,-0.0099
1760000011560,52525,0.0188,-0.9754,0.1039,-0.0009,-0.0473,-0.0141
1760000011580,52210,0.0116,-0.9797,0.0950,0.0125,0.0007,-0.0055
1760000011600,52141,0.0144,-0.9798,0.0943,0.0299,0.0056,0.0272
1760000011620,51871,0.0247,-0.9841,0.0937,0.0202,0.0116,0.0416
1760000011640,51640,0.0218,-0.9698,0.1025,-0.0222,0.0113,-0.0109
1760000011660,51140,0.0228,-0.9806,0.0973,-0.0026,0.0012,-0.0070
1760000011680,50493,0.0231,-0.9803,0.0966,0.0275,-0.0236,0.0395
1760000011700,50140,0.0258,-0.9858,0.0994,-0.0167,0.0013,0.0173
1760000011720,49624,0.0195,-0.9783,0.1032,-0.0124,-0.0195,-0.0005
1760000011740,49026,0.0198,-0.9756,0.0997,0.0170,-0.0260,-0.0230
1760000011760,48468,0.0179,-0.9790,0.1017,0.0136,-0.0005,-0.0128
1760000011780,48088,0.0262,-0.9758,0.0988,-0.0029,-0.0254,-0.0367
1760000011800,47776,0.0240,-0.9723,0.0979,0.0144,-0.0173,0.0046
1760000011820,47554,0.0220,-0.9764,0.1000,0.0157,0.0077,-0.0028
1760000011840,47516,0.0159,-0.9935,0.1099,-0.0245,-0.0150,0.0032
1760000011860,47488,0.0187,-0.9780,0.1048,-0.0231,0.0149,-0.0210
1760000011880,47706,0.0224,-0.9731,0.0902,0.0037,-0.0047,0.0197
1760000011900,47785,0.0186,-0.9817,0.1080,-0.0035,-0.0350,-0.0140
1760000011920,48090,0.0232,-0.9807,0.1026,0.0002,-0.0262,-0.0197
1760000011940,48413,0.0148,-0.9778,0.0962,-0.0011,0.0269,-0.0201
1760000011960,48973,0.0236,-0.9776,0.0970,-0.0132,0.0055,-0.0110
1760000011980,49484,0.0191,-0.9779,0.0952,-0.0204,-0.0059,0.0414
1760000012000,50189,0.0173,-0.9810,0.1084,-0.0016,-0.0101,-0.0344
1760000012020,50618,0.0188,-0.9811,0.1051,0.0120,0.0306,-0.0187
1760000012040,51081,0.0191,-0.9783,0.1086,-0.0426,0.0150,-0.0075
1760000012060,51407,0.0213,-0.9804,0.1109,-0.0123,-0.0084,-0.0067
1760000012080,51865,0.0216,-0.9818,0.0999,0.0109,-0.0213,0.0133
1760000012100,52117,0.0140,-0.9789,0.1023,0.0013,-0.0095,-0.0091
1760000012120,52463,0.0131,-0.9798,0.1062,-0.0031,-0.0114,-0.0022
1760000012140,52466,0.0268,-0.9798,0.0939,0.0140,0.0265,0.0322
1760000012160,52375,0.0255,-0.9771,0.0972,0.0066,0.0190,-0.0546
1760000012180,52338,0.0172,-0.9789,0.1033,-0.0386,0.0370,-0.0190
1760000012200,52138,0.0246,-0.9800,0.1089,0.0132,-0.0138,-0.0041
1760000012220,51845,0.0265,-0.9782,0.0992,0.0189,0.0371,0.0395
1760000012240,51522,0.0107,-0.9814,0.1022,0.0289,0.0339,-0.0138
1760000012260,51024,0.0289,-0.9854,0.1030,0.0340,0.0042,0.0086
1760000012280,50553,0.0271,-0.9847,0.1013,0.0007,-0.0133,0.0045
1760000012300,49872,0.0196,-0.9788,0.0988,0.0169,0.0039,0.0014
1760000012320,49480,0.0198,-0.9790,0.0999,-0.0122,0.0230,0.0100
1760000012340,48947,0.0214,-0.9656,0.0990,-0.0092,0.0004,-0.0104
1760000012360,48417,0.0229,-0.9824,0.1095,0.0106,0.0026,-0.0329
1760000012380,47948,0.0156,-0.9857,0.0975,-0.0169,-0.0209,0.0216
1760000012400,48026,0.0275,-0.9845,0.1002,0.0083,0.0300,0.0055
1760000012420,47554,0.0164,-0.9756,0.1063,0.0372,0.0300,0.0092
1760000012440,47582,0.0126,-0.9768,0.1013,0.0356,0.0005,-0.0291
1760000012460,47343,0.0272,-0.9742,0.0958,0.0242,0.0154,-0.0031
1760000012480,47613,0.0177,-0.9750,0.1010,0.0213,0.0256,-0.0136
1760000012500,47813,0.0243,-0.9764,0.1039,-0.0254,0.0138,-0.0171
1760000012520,48177,0.0163,-0.9751,0.0998,0.0256,-0.0255,-0.0155
1760000012540,48486,0.0204,-0.9748,0.1049,-0.0216,-0.0105,-0.0165
1760000012560,48934,0.0274,-0.9786,0.1018,-0.0433,-0.0137,0.0113
1760000012580,49480,0.0158,-0.9823,0.1014,-0.0247,-0.0054,-0.0024
1760000012600,49972,0.0236,-0.9835,0.1006,0.0385,0.0034,-0.0196
1760000012620,50541,0.0202,-0.9781,0.1005,0.0350,0.0257,-0.0234
1760000012640,51154,0.0124,-0.9845,0.0988,0.0255,0.0285,-0.0226
1760000012660,51538,0.0210,-0.9751,0.1051,0.0031,0.0174,0.0146
1760000012680,51976,0.0188,-0.9812,0.1019,0.0241,0.0169,0.0684
1760000012700,52179,0.0192,-0.9730,0.1018,0.0311,-0.0071,-0.0423
1760000012720,52391,0.0140,-0.9782,0.0955,0.0064,0.0042,0.0145
1760000012740,52541,0.0096,-0.9770,0.1030,-0.0441,0.0028,0.0058
1760000012760,52407,0.0182,-0.9868,0.0926,-0.0055,-0.0291,0.0327
1760000012780,52406,0.0295,-0.9769,0.0983,0.0160,-0.0378,0.0310
1760000012800,52120,0.0280,-0.9777,0.1000,-0.0075,-0.0008,0.0112
1760000012820,51902,0.0289,-0.9804,0.1112,0.0007,-0.0025,-0.0006
1760000012840,51411,0.0169,-0.9924,0.0920,0.0118,0.0127,-0.0320
1760000012860,50998,0.0236,-0.9707,0.0994,0.0024,0.0187,-0.0015
1760000012880,50584,0.0254,-0.9796,0.0955,-0.0057,0.0268,-0.0077
1760000012900,49904,0.0161,-0.9877,0.1060,0.0411,0.0034,-0.0239
1760000012920,49542,0.0220,-0.9851,0.0957,0.0089,0.0327,0.0429
1760000012940,49032,0.0204,-0.9690,0.0974,-0.0061,0.0046,0.0151
1760000012960,48607,0.0216,-0.9822,0.0999,-0.0165,0.0243,0.0110
1760000012980,48012,0.0246,-0.9784,0.0980,0.0143,0.0257,-0.0048
1760000013000,47796,0.0170,-0.9862,0.1081,-0.0171,-0.0329,-0.0060
1760000013020,47610,0.0227,-0.9808,0.1010,0.0197,-0.0190,-0.0192
1760000013040,47389,0.0200,-0.9770,0.1015,-0.0124,0.0309,-0.0143
1760000013060,47511,0.0190,-0.9844,0.1010,-0.0114,0.0345,0.0048
1760000013080,47724,0.0275,-0.9844,0.0968,0.0325,0.0135,0.0276
1760000013100,47849,0.0161,-0.9741,0.1052,0.0121,-0.0054,0.0028
1760000013120,48198,0.0203,-0.9812,0.0996,0.0088,0.0070,-0.0411
1760000013140,48433,0.0222,-0.9746,0.1023,0.0099,0.0134,0.0258
1760000013160,48810,0.0176,-0.9809,0.0984,0.0188,-0.0054,0.0244
1760000013180,49290,0.0113,-0.9788,0.1003,-0.0069,-0.0247,-0.0253
1760000013200,50009,0.0190,-0.9852,0.0989,0.0074,-0.0034,-0.0105
1760000013220,50595,0.0163,-0.9810,0.1027,0.0298,0.0165,-0.0071
1760000013240,50949,0.0174,-0.9758,0.1128,-0.0377,-0.0611,0.0207
1760000013260,51426,0.0177,-0.9866,0.1016,-0.0010,-0.0400,-0.0043
1760000013280,51838,0.0208,-0.9852,0.1043,0.0120,-0.0035,0.0021
1760000013300,52231,0.0221,-0.9753,0.1035,-0.0184,-0.0114,0.0464
1760000013320,52329,0.0207,-0.9796,0.0972,-0.0037,-0.0055,-0.0314
1760000013340,52439,0.0194,-0.9753,0.0988,-0.0325,0.0033,-0.0210
1760000013360,52576,0.0178,-0.9822,0.1014,-0.0011,-0.0218,0.0066
1760000013380,52189,0.0181,-0.9754,0.0980,-0.0413,0.0172,-0.0089
1760000013400,52168,0.0271,-0.9760,0.0909,-0.0008,0.0207,-0.0144
1760000013420,51840,0.0255,-0.9774,0.0997,0.0257,-0.0090,0.0222
1760000013440,51502,0.0189,-0.9803,0.1010,-0.0260,-0.0292,0.0315
1760000013460,50837,0.0209,-0.9776,0.0949,-0.0255,0.0207,-0.0214
1760000013480,50555,0.0247,-0.9879,0.0974,0.0267,-0.0371,0.0260
1760000013500,49947,0.0170,-0.9842,0.0986,-0.0185,0.0133,-0.0102
1760000013520,49408,0.0193,-0.9874,0.0991,-0.0006,0.0221,-0.0286
1760000013540,48943,0.0134,-0.9845,0.1042,0.0134,-0.0390,0.0002
1760000013560,48495,0.0174,-0.9801,0.1027,0.0049,0.0149,-0.0092
1760000013580,48069,0.0244,-0.9840,0.1022,-0.0279,0.0158,-0.0104
1760000013600,47763,0.0288,-0.9833,0.0958,0.0066,-0.0125,0.0074
1760000013620,47724,0.0216,-0.9848,0.1066,0.0005,0.0216,-0.0164
1760000013640,47585,0.0205,-0.9758,0.0999,-0.0044,-0.0109,-0.0149
1760000013660,47441,0.0356,-0.9751,0.1014,0.0225,-0.0026,0.0303
1760000013680,47630,0.0223,-0.9708,0.0887,0.0113,0.0409,0.0463
1760000013700,47916,0.0223,-0.9780,0.0991,-0.0251,-0.0333,0.0095
1760000013720,48284,0.0179,-0.9776,0.1092,0.0326,-0.0076,-0.0473
1760000013740,48335,0.0097,-0.9747,0.1014,-0.0331,-0.0171,0.0047
1760000013760,49018,0.0160,-0.9775,0.1024,-0.0007,-0.0061,0.0267
1760000013780,49540,0.0181,-0.9794,0.1042,0.0141,0.0037,-0.0074
1760000013800,50005,0.0198,-0.9759,0.0989,-0.0207,0.0111,-0.0134
1760000013820,50557,0.0143,-0.9788,0.0955,-0.0080,0.0111,0.0248
1760000013840,51055,0.0205,-0.9832,0.1052,0.0429,0.0235,-0.0049
1760000013860,51380,0.0159,-0.9819,0.1106,0.0063,-0.0430,-0.0021
1760000013880,51818,0.0223,-0.9874,0.0879,0.0135,0.0218,0.0253
1760000013900,52195,0.0155,-0.9784,0.1048,-0.0123,-0.0310,0.0166
1760000013920,52421,0.0187,-0.9714,0.1109,-0.0103,-0.0326,0.0485
1760000013940,52459,0.0172,-0.9818,0.0983,-0.0187,-0.0136,-0.0176
1760000013960,52387,0.0213,-0.9806,0.0948,-0.0001,-0.0036,0.0245
1760000013980,52436,0.0174,-0.9698,0.0927,0.0128,-0.0024,0.0305
1760000014000,52113,0.0151,-0.9791,0.0968,-0.0155,0.0012,-0.0191
1760000014020,51647,0.0218,-0.9857,0.1035,0.0010,0.0094,0.0110
1760000014040,51607,0.0176,-0.9822,0.0995,0.0039,0.0274,0.0055
1760000014060,50889,0.0108,-0.9864,0.0980,0.0006,-0.0051,0.0139
1760000014080,50633,0.0137,-0.9822,0.0965,0.0060,-0.0112,0.0140
1760000014100,49947,0.0191,-0.9749,0.1035,-0.0286,0.0031,-0.0031
1760000014120,49560,0.0194,-0.9720,0.0980,-0.0225,-0.0003,0.0298
1760000014140,48869,0.0107,-0.9722,0.1073,-0.0012,0.0104,0.0160
1760000014160,48522,0.0201,-0.9836,0.0978,0.0143,-0.0091,0.0606
1760000014180,48216,0.0234,-0.9863,0.0946,0.0049,-0.0164,-0.0026
1760000014200,47873,0.0184,-0.9812,0.0993,0.0137,-0.0078,0.0106
1760000014220,47755,0.0237,-0.9772,0.1041,0.0055,0.0304,0.0229
1760000014240,47532,0.0247,-0.9789,0.0985,-0.0017,-0.0043,0.0087
1760000014260,47481,0.0224,-0.9838,0.0978,-0.0308,-0.0108,0.0079
1760000014280,47516,0.0203,-0.9783,0.1007,0.0015,-0.0063,0.0045
1760000014300,47885,0.0200,-0.9808,0.0990,-0.0078,0.0096,0.0191
1760000014320,48071,0.0161,-0.9796,0.1078,-0.0636,0.0041,0.0058
1760000014340,48618,0.0199,-0.9903,0.0966,0.0336,-0.0005,0.0135
1760000014360,48874,0.0068,-0.9792,0.0987,-0.0304,0.0153,0.0054
1760000014380,49335,0.0221,-0.9799,0.0962,-0.0013,-0.0208,-0.0225
1760000014400,49986,0.0204,-0.9850,0.1041,-0.0117,0.0001,-0.0112
1760000014420,50432,0.0155,-0.9845,0.0999,0.0390,-0.0070,0.0024
1760000014440,51005,0.0292,-0.9873,0.1036,0.0054,0.0217,-0.0185
1760000014460,51528,0.0175,-0.9894,0.0989,0.0011,0.0359,-0.0269
1760000014480,51861,0.0149,-0.9698,0.0994,0.0184,-0.0088,-0.0098
1760000014500,52133,0.0212,-0.9746,0.0991,0.0096,0.0404,0.0018
1760000014520,52438,0.0225,-0.9759,0.1029,-0.0024,-0.0156,-0.0062
1760000014540,52485,0.0304,-0.9883,0.0967,-0.0058,-0.0209,0.0064
1760000014560,52521,0.0204,-0.9735,0.1045,0.0128,-0.0154,-0.0051
1760000014580,52406,0.0125,-0.9798,0.0991,0.0427,0.0148,-0.0043
1760000014600,52258,0.0155,-0.9845,0.1028,-0.0020,0.0035,-0.0143
1760000014620,51814,0.0168,-0.9854,0.0930,0.0010,0.0103,0.0002
1760000014640,51358,0.0175,-0.9766,0.1051,-0.0114,0.0494,-0.0219
1760000014660,50895,0.0224,-0.9887,0.1028,-0.0060,0.0200,0.0095
1760000014680,50500,0.0240,-0.9720,0.1076,0.0135,0.0240,0.0005
1760000014700,50001,0.0242,-0.9813,0.0986,-0.0087,-0.0010,0.0417
1760000014720,49514,0.0253,-0.9859,0.1016,-0.0140,-0.0080,0.0130
1760000014740,48986,0.0280,-0.9834,0.1067,0.0222,-0.0056,-0.0167
1760000014760,48478,0.0177,-0.9795,0.0994,0.0158,0.0172,-0.0249
1760000014780,48128,0.0190,-0.9854,0.0961,0.0461,0.0165,0.0118
1760000014800,47683,0.0209,-0.9670,0.1060,-0.0042,0.0006,-0.0060
1760000014820,47712,0.0216,-0.9843,0.0981,-0.0116,-0.0228,0.0034
1760000014840,47540,0.0210,-0.9775,0.1004,-0.0484,0.0250,-0.0108
1760000014860,47421,0.0140,-0.9868,0.1010,-0.0026,-0.0006,-0.0100
1760000014880,47642,0.0165,-0.9853,0.0934,0.0208,-0.0270,0.0228
1760000014900,47754,0.0190,-0.9844,0.1004,0.0206,0.0029,0.0089
1760000014920,48091,0.0186,-0.9795,0.0974,0.0255,0.0141,0.0070
1760000014940,48516,0.0221,-0.9855,0.0950,-0.0319,0.0050,0.0035
1760000014960,49022,0.0188,-0.9826,0.0957,0.0039,0.0078,-0.0176
1760000014980,49530,0.0248,-0.9761,0.0999,-0.0026,-0.0113,0.0305
1760000015000,50074,0.0140,-0.9854,0.1017,-0.0085,0.0072,-0.0140
1760000015020,50716,0.0114,-0.9874,0.0975,-0.0114,-0.0154,-0.0022
1760000015040,51120,0.0211,-0.9761,0.0907,0.0066,0.0054,-0.0209
1760000015060,51462,0.0204,-0.9820,0.1002,-0.0441,0.0030,-0.0175
1760000015080,51801,0.0163,-0.9790,0.1032,-0.0065,0.0149,-0.0196
1760000015100,52104,0.0127,-0.9782,0.1071,0.0004,0.0442,0.0307
1760000015120,52301,0.0165,-0.9752,0.1058,0.0180,-0.0013,-0.0105
1760000015140,52412,0.0242,-0.9773,0.0963,0.0493,-0.0053,0.0138
1760000015160,52386,0.0258,-0.9872,0.1091,-0.0232,0.0320,0.0109
1760000015180,52373,0.0150,-0.9836,0.1015,-0.0230,0.0326,0.0083
1760000015200,52093,0.0134,-0.9686,0.1075,0.0071,0.0147,-0.0231
1760000015220,51876,0.0151,-0.9717,0.0932,0.0224,0.0098,-0.0132
1760000015240,51689,0.0304,-0.9831,0.0952,-0.0003,0.0347,-0.0110
1760000015260,51008,0.0294,-0.9839,0.1043,0.0095,-0.0196,-0.0310
1760000015280,50583,0.0169,-0.9717,0.1040,-0.0056,-0.0026,-0.0302
1760000015300,50070,0.0153,-0.9856,0.1084,-0.0076,0.0125,-0.0185
1760000015320,49460,0.0127,-0.9701,0.0971,0.0069,-0.0123,-0.0030
1760000015340,49069,0.0175,-0.9876,0.0975,0.0005,0.0287,-0.0059
1760000015360,48602,0.0189,-0.9815,0.0960,0.0051,-0.0070,0.0015
1760000015380,48152,0.0274,-0.9894,0.0826,-0.0242,0.0164,-0.0115
1760000015400,47774,0.0178,-0.9794,0.0902,-0.0221,0.0073,-0.0227
1760000015420,47581,0.0142,-0.9779,0.0961,0.0135,0.0231,0.0423
1760000015440,47416,0.0241,-0.9823,0.1025,0.0264,-0.0126,0.0131
1760000015460,47424,0.0205,-0.9779,0.1018,-0.0093,0.0105,-0.0208
1760000015480,47579,0.0243,-0.9728,0.0908,-0.0140,0.0256,-0.0154
1760000015500,47925,0.0159,-0.9704,0.1055,0.0065,-0.0223,0.0244
1760000015520,48170,0.0214,-0.9868,0.1036,0.0215,0.0142,-0.0220
1760000015540,48628,0.0225,-0.9805,0.1051,-0.0140,-0.0032,-0.0142
1760000015560,49003,0.0301,-0.9811,0.0887,-0.0362,-0.0189,0.0249
1760000015580,49422,0.0158,-0.9747,0.0942,-0.0041,0.0065,0.0186
1760000015600,50043,0.0175,-0.9740,0.0948,0.0135,0.0212,-0.0259
1760000015620,50545,0.0225,-0.9814,0.1159,-0.0112,0.0396,-0.0327
1760000015640,50994,0.0235,-0.9854,0.1004,0.0308,-0.0052,-0.0230
1760000015660,51327,0.0249,-0.9819,0.0968,0.0169,0.0014,0.0313
1760000015680,51896,0.0205,-0.9731,0.0975,-0.0355,-0.0333,0.0014
1760000015700,52225,0.0163,-0.9772,0.0948,0.0189,-0.0041,0.0015
1760000015720,52336,0.0136,-0.9822,0.1063,-0.0032,0.0012,0.0057
1760000015740,52697,0.0189,-0.9780,0.1089,-0.0088,0.0011,0.0047
1760000015760,52529,0.0272,-0.9756,0.0990,0.0137,0.0039,0.0084
1760000015780,52352,0.0280,-0.9680,0.0977,0.0062,-0.0303,-0.0432
1760000015800,52285,0.0291,-0.9793,0.0920,0.0204,0.0033,0.0013
1760000015820,51705,0.0198,-0.9779,0.1015,-0.0139,-0.0093,-0.0354
1760000015840,51455,0.0188,-0.9798,0.1033,-0.0363,0.0188,-0.0010
1760000015860,51030,0.0270,-0.9804,0.0989,0.0323,-0.0260,0.0306
1760000015880,50583,0.0132,-0.9799,0.1095,-0.0052,-0.0230,-0.0301
1760000015900,50112,0.0157,-0.9824,0.0989,-0.0130,0.0018,-0.0223
1760000015920,49351,0.0195,-0.9870,0.0947,-0.0247,-0.0236,-0.0120
1760000015940,49070,0.0245,-0.9800,0.1020,-0.0026,-0.0008,0.0024
1760000015960,48526,0.0126,-0.9858,0.0999,0.0279,-0.0107,-0.0189
1760000015980,48285,0.0220,-0.9852,0.0955,0.0214,-0.0179,-0.0077
1760000016000,47800,0.0220,-0.9827,0.1067,0.0074,-0.0082,0.0080
1760000016020,47595,0.0187,-0.9862,0.0975,-0.0079,0.0216,0.0250
1760000016040,47564,0.0217,-0.9768,0.1038,0.0056,0.0114,-0.0086
1760000016060,47455,0.0174,-0.9700,0.0881,-0.0121,0.0153,0.0231
1760000016080,47616,0.0206,-0.9796,0.1005,-0.0057,-0.0036,0.0099
1760000016100,47829,0.0157,-0.9822,0.1018,-0.0041,-0.0073,-0.0009
1760000016120,48118,0.0244,-0.9725,0.0955,0.0087,-0.0448,0.0041
1760000016140,48446,0.0286,-0.9712,0.1089,0.0058,0.0138,0.0012
1760000016160,48966,0.0211,-0.9841,0.0983,-0.0046,0.0459,0.0239
1760000016180,49377,0.0172,-0.9747,0.0959,-0.0413,-0.0088,-0.0037
1760000016200,50016,0.0174,-0.9780,0.1062,0.0150,0.0237,-0.0348
1760000016220,50636,0.0187,-0.9774,0.1097,-0.0160,-0.0133,0.0167
1760000016240,50939,0.0243,-0.9820,0.1040,-0.0261,-0.0226,-0.0097
1760000016260,51477,0.0116,-0.9811,0.1048,0.0226,0.0116,-0.0063
1760000016280,51828,0.0237,-0.9826,0.0994,0.0099,-0.0155,0.0008
1760000016300,52058,0.0242,-0.9915,0.0990,0.0205,0.0279,-0.0181
1760000016320,52324,0.0164,-0.9804,0.1004,-0.0490,0.0257,0.0056
1760000016340,52315,0.0204,-0.9953,0.1117,-0.0096,0.0163,0.0065
1760000016360,52411,0.0212,-0.9788,0.0993,0.0069,0.0072,0.0090
1760000016380,52185,0.0263,-0.9770,0.1072,0.0354,0.0256,-0.0152
1760000016400,52296,0.0168,-0.9818,0.0947,0.0098,0.0084,0.0008
1760000016420,51828,0.0165,-0.9815,0.1054,-0.0133,0.0027,-0.0030
1760000016440,51488,0.0204,-0.9694,0.0972,0.0187,-0.0173,0.0533
1760000016460,51104,0.0245,-0.9772,0.1045,-0.0060,0.0438,0.0084
1760000016480,50507,0.0270,-0.9829,0.1036,0.0074,-0.0307,-0.0392
1760000016500,49922,0.0144,-0.9795,0.0916,-0.0133,-0.0227,-0.0038
1760000016520,49441,0.0177,-0.9769,0.0986,0.0018,0.0314,-0.0297
1760000016540,48962,0.0230,-0.9745,0.1034,-0.0065,-0.0109,-0.0304
1760000016560,48470,0.0111,-0.9874,0.1015,-0.0269,-0.0159,0.0105
1760000016580,48086,0.0116,-0.9810,0.0994,0.0240,0.0097,-0.0229
1760000016600,47880,0.0144,-0.9815,0.0931,0.0218,-0.0164,-0.0026
1760000016620,47678,0.0181,-0.9809,0.1072,0.0401,-0.0372,-0.0140
1760000016640,47578,0.0124,-0.9850,0.1019,-0.0090,0.0095,0.0120
1760000016660,47538,0.0239,-0.9836,0.1054,0.0065,0.0153,-0.0049
1760000016680,47511,0.0152,-0.9704,0.1024,-0.0041,-0.0069,-0.0202
1760000016700,47935,0.0242,-0.9851,0.1007,0.0021,-0.0282,0.0189
1760000016720,48054,0.0258,-0.9820,0.0918,0.0267,0.0117,-0.0346
1760000016740,48624,0.0124,-0.9716,0.0955,0.0056,-0.0013,0.0094
1760000016760,49031,0.0116,-0.9834,0.0977,-0.0047,-0.0295,0.0078
1760000016780,49475,0.0135,-0.9768,0.0987,0.0061,-0.0282,0.0249
1760000016800,49861,0.0138,-0.9760,0.0966,-0.0082,0.0059,0.0123
1760000016820,50521,0.0297,-0.9837,0.1022,0.0037,0.0069,0.0321
1760000016840,50960,0.0202,-0.9781,0.1029,-0.0283,-0.0097,0.0427
1760000016860,51622,0.0130,-0.9806,0.1007,0.0152,0.0042,0.0012
1760000016880,51821,0.0204,-0.9908,0.0974,-0.0394,-0.0465,-0.0201
1760000016900,52115,0.0218,-0.9784,0.1054,-0.0223,0.0053,-0.0235
1760000016920,52267,0.0180,-0.9748,0.1035,0.0247,0.0063,-0.0273
1760000016940,52401,0.0259,-0.9809,0.1113,-0.0010,-0.0083,0.0176
1760000016960,52488,0.0213,-0.9857,0.1021,-0.0175,-0.0434,0.0198
1760000016980,52305,0.0093,-0.9771,0.0981,0.0065,0.0007,0.0142
1760000017000,52155,0.0239,-0.9797,0.1064,-0.0197,0.0100,0.0022
1760000017020,52027,0.0228,-0.9858,0.0959,0.0141,-0.0412,0.0266
1760000017040,51437,0.0129,-0.9840,0.0943,0.0237,0.0070,-0.0004
1760000017060,50916,0.0134,-0.9762,0.1010,0.0280,-0.0232,0.0120
1760000017080,50578,0.0138,-0.9739,0.0966,-0.0018,0.0206,0.0196
1760000017100,50017,0.0154,-0.9787,0.1054,-0.0054,-0.0084,0.0342
1760000017120,49515,0.0156,-0.9782,0.0925,-0.0058,-0.0100,-0.0004
1760000017140,49031,0.0172,-0.9865,0.0940,0.0092,-0.0022,-0.0074
1760000017160,48532,0.0204,-0.9808,0.1041,-0.0353,0.0365,-0.0317
1760000017180,48165,0.0185,-0.9740,0.0993,-0.0099,-0.0050,0.0158
1760000017200,47916,0.0245,-0.9868,0.0967,0.0101,0.0109,-0.0057
1760000017220,47612,0.0199,-0.9765,0.1019,0.0053,0.0035,-0.0156
1760000017240,47475,0.0112,-0.9723,0.1096,0.0197,-0.0201,-0.0119
1760000017260,47567,0.0116,-0.9762,0.1023,-0.0033,0.0249,0.0107
1760000017280,47626,0.0147,-0.9833,0.1003,-0.0111,-0.0138,0.0120
1760000017300,47809,0.0312,-0.9798,0.0959,-0.0050,-0.0282,0.0017
1760000017320,48107,0.0334,-0.9766,0.0998,0.0220,0.0249,-0.0107
1760000017340,48509,0.0130,-0.9802,0.1026,0.0114,-0.0102,0.0025
1760000017360,48877,0.0270,-0.9705,0.1048,0.0410,0.0102,-0.0076
1760000017380,49394,0.0237,-0.9787,0.0954,-0.0199,0.0146,-0.0038
1760000017400,49854,0.0205,-0.9834,0.0999,0.0170,0.0011,0.0009
1760000017420,50475,0.0182,-0.9737,0.1067,0.0218,0.0082,0.0403
1760000017440,51070,0.0212,-0.9866,0.1014,-0.0007,0.0045,-0.0274
1760000017460,51590,0.0252,-0.9806,0.1045,0.0010,0.0014,0.0003
1760000017480,51741,0.0186,-0.9659,0.0981,0.0341,0.0398,0.0371
1760000017500,52160,0.0276,-0.9811,0.1039,-0.0097,-0.0036,-0.0060
1760000017520,52513,0.0202,-0.9824,0.1011,-0.0031,-0.0029,0.0594
1760000017540,52362,0.0216,-0.9846,0.1018,0.0083,-0.0262,-0.0249
1760000017560,52646,0.0303,-0.9823,0.1077,0.0305,0.0231,0.0069
1760000017580,52558,0.0226,-0.9804,0.1013,0.0220,0.0083,-0.0192
1760000017600,52169,0.0211,-0.9720,0.0929,0.0059,-0.0207,-0.0166
1760000017620,51885,0.0210,-0.9739,0.0955,-0.0127,-0.0026,-0.0202
1760000017640,51540,0.0249,-0.9848,0.0958,-0.0231,0.0084,-0.0184
1760000017660,50937,0.0274,-0.9698,0.1004,-0.0089,-0.0164,0.0289
1760000017680,50641,0.0282,-0.9861,0.0931,0.0030,0.0086,-0.0280
1760000017700,49920,0.0298,-0.9772,0.1014,-0.0130,0.0061,0.0427
1760000017720,49470,0.0241,-0.9795,0.0999,0.0043,-0.0144,0.0056
1760000017740,49058,0.0291,-0.9828,0.1026,-0.0264,-0.0022,-0.0050
1760000017760,48602,0.0267,-0.9842,0.1068,0.0137,0.0244,0.0158
1760000017780,48206,0.0109,-0.9812,0.0916,-0.0015,-0.0216,0.0289
1760000017800,47788,0.0237,-0.9930,0.1090,0.0273,0.0020,0.0380
1760000017820,47610,0.0249,-0.9789,0.1015,0.0238,-0.0058,0.0349
1760000017840,47380,0.0257,-0.9782,0.1045,0.0021,-0.0361,0.0028
1760000017860,47440,0.0204,-0.9747,0.1057,0.0458,0.0144,0.0211
1760000017880,47619,0.0207,-0.9845,0.1062,-0.0185,-0.0362,-0.0042
1760000017900,47814,0.0154,-0.9761,0.0939,-0.0087,-0.0058,0.0162
1760000017920,48123,0.0231,-0.9795,0.1014,0.0368,-0.0048,0.0150
1760000017940,48532,0.0198,-0.9726,0.0981,0.0206,0.0186,-0.0157
1760000017960,49072,0.0257,-0.9846,0.0958,0.0117,-0.0006,0.0109
1760000017980,49545,0.0156,-0.9790,0.0951,-0.0147,-0.0008,-0.0114
1760000018000,49807,0.0186,-0.9805,0.1011,0.0131,0.0131,0.0276
1760000018020,50463,0.0204,-0.9817,0.0988,-0.0248,0.0106,-0.0057
1760000018040,51034,0.0210,-0.9818,0.1059,-0.0356,0.0385,0.0057
1760000018060,51506,0.0284,-0.9795,0.0955,0.0046,-0.0080,-0.0008
1760000018080,51782,0.0141,-0.9689,0.0988,0.0330,0.0269,-0.0129
1760000018100,52222,0.0256,-0.9767,0.1024,-0.0045,-0.0262,-0.0136
1760000018120,52366,0.0184,-0.9802,0.1072,-0.0160,0.0092,-0.0178
1760000018140,52522,0.0198,-0.9849,0.0971,-0.0079,-0.0141,-0.0016
1760000018160,52354,0.0170,-0.9795,0.0970,0.0166,0.0068,-0.0058
1760000018180,52328,0.0253,-0.9805,0.1078,-0.0061,-0.0113,0.0153
1760000018200,52224,0.0208,-0.9839,0.1068,-0.0167,0.0233,0.0240
1760000018220,51863,0.0249,-0.9847,0.0945,-0.0094,0.0128,0.0024
1760000018240,51347,0.0199,-0.9803,0.0975,-0.0310,-0.0111,0.0187
1760000018260,50958,0.0246,-0.9787,0.0907,-0.0087,0.0092,0.0138
1760000018280,50628,0.0154,-0.9702,0.1008,-0.0513,-0.0051,-0.0102
1760000018300,50074,0.0183,-0.9702,0.1030,0.0242,-0.0036,-0.0062
1760000018320,49596,0.0162,-0.9814,0.1098,0.0203,0.0254,0.0121
1760000018340,48921,0.0212,-0.9833,0.1125,-0.0295,-0.0460,0.0253
1760000018360,48539,0.0297,-0.9888,0.0991,-0.0067,-0.0074,0.0022
1760000018380,48079,0.0180,-0.9745,0.1021,0.0134,0.0013,-0.0219
1760000018400,47943,0.0197,-0.9748,0.0992,0.0053,0.0109,0.0318
1760000018420,47678,0.0234,-0.9828,0.1014,-0.0104,-0.0043,0.0200
1760000018440,47555,0.0231,-0.9806,0.1019,-0.0051,0.0197,0.0171
1760000018460,47570,0.0231,-0.9744,0.1016,0.0000,0.0210,0.0237
1760000018480,47634,0.0184,-0.9782,0.0994,0.0457,0.0223,-0.0268
1760000018500,47810,0.0130,-0.9821,0.0909,-0.0219,-0.0100,0.0153
1760000018520,48350,0.0159,-0.9834,0.1030,0.0068,0.0028,-0.0079
1760000018540,48506,0.0232,-0.9770,0.1042,0.0058,-0.0207,-0.0053
1760000018560,48934,0.0358,-0.9849,0.1078,-0.0081,-0.0136,0.0126
1760000018580,49551,0.0170,-0.9751,0.0975,-0.0145,-0.0119,-0.0188
1760000018600,49926,0.0157,-0.9755,0.0947,-0.0092,0.0313,-0.0122
1760000018620,50571,0.0194,-0.9796,0.0981,0.0145,0.0130,-0.0100
1760000018640,50993,0.0183,-0.9782,0.1095,0.0012,0.0063,0.0265
1760000018660,51437,0.0256,-0.9907,0.0970,-0.0275,-0.0031,-0.0106
1760000018680,51706,0.0216,-0.9773,0.1030,-0.0266,0.0037,0.0143
1760000018700,52146,0.0188,-0.9793,0.0986,-0.0079,-0.0387,-0.0072
1760000018720,52454,0.0249,-0.9847,0.0975,0.0054,-0.0263,-0.0460
1760000018740,52544,0.0197,-0.9851,0.1013,0.0039,-0.0336,-0.0210
1760000018760,52403,0.0137,-0.9778,0.0959,0.0054,-0.0166,-0.0288
1760000018780,52366,0.0156,-0.9899,0.0964,-0.0368,-0.0602,-0.0316
1760000018800,52228,0.0211,-0.9724,0.0936,-0.0115,0.0077,0.0524
1760000018820,52046,0.0187,-0.9765,0.0964,0.0199,0.0648,-0.0047
1760000018840,51381,0.0163,-0.9816,0.0958,-0.0204,0.0026,0.0203
1760000018860,50987,0.0251,-0.9785,0.1056,0.0712,0.0161,-0.0192
1760000018880,50574,0.0166,-0.9781,0.1043,0.0174,-0.0192,0.0420
1760000018900,49993,0.0239,-0.9721,0.1013,-0.0286,-0.0121,0.0036
1760000018920,49502,0.0151,-0.9810,0.0968,-0.0119,0.0189,0.0030
1760000018940,48981,0.0147,-0.9803,0.1013,0.0172,0.0114,-0.0179
1760000018960,48495,0.0163,-0.9778,0.0994,-0.0206,-0.0258,0.0168
1760000018980,48108,0.0185,-0.9782,0.1067,0.0058,0.0177,-0.0285
1760000019000,47981,0.0139,-0.9823,0.1042,-0.0362,0.0081,-0.0034
1760000019020,47619,0.0219,-0.9874,0.0933,-0.0273,0.0212,0.0042
1760000019040,47428,0.0257,-0.9827,0.0894,-0.0064,-0.0122,0.0216
1760000019060,47591,0.0119,-0.9789,0.1064,0.0072,0.0259,-0.0268
1760000019080,47704,0.0151,-0.9810,0.0984,0.0225,0.0079,-0.0390
1760000019100,47743,0.0196,-0.9741,0.0995,-0.0240,-0.0619,-0.0122
1760000019120,48173,0.0196,-0.9738,0.1000,-0.0163,0.0013,-0.0066
1760000019140,48359,0.0182,-0.9786,0.0975,0.0200,0.0050,-0.0274
1760000019160,48910,0.0100,-0.9798,0.1078,0.0049,-0.0099,0.0001
1760000019180,49504,0.0202,-0.9876,0.1131,0.0104,-0.0044,0.0177
1760000019200,50116,0.0136,-0.9798,0.1021,-0.0023,0.0154,-0.0093
1760000019220,50536,0.0177,-0.9764,0.1065,0.0420,-0.0166,-0.0392
1760000019240,50951,0.0197,-0.9816,0.1030,0.0005,-0.0384,0.0010
1760000019260,51513,0.0107,-0.9806,0.1095,0.0140,0.0051,-0.0233
1760000019280,51997,0.0164,-0.9839,0.0971,-0.0003,-0.0312,0.0169
1760000019300,52176,0.0175,-0.9764,0.0935,-0.0347,0.0200,-0.0036
1760000019320,52378,0.0217,-0.9818,0.1064,-0.0401,-0.0092,-0.0143
1760000019340,52425,0.0253,-0.9796,0.0988,0.0376,-0.0010,-0.0188
1760000019360,52472,0.0194,-0.9803,0.0895,0.0366,-0.0241,0.0176
1760000019380,52515,0.0191,-0.9805,0.1002,0.0331,-0.0119,0.0102
1760000019400,52122,0.0244,-0.9789,0.0947,0.0253,-0.0202,-0.0650
1760000019420,51901,0.0187,-0.9716,0.0956,0.0047,0.0169,0.0085
1760000019440,51513,0.0197,-0.9853,0.1036,-0.0068,0.0054,-0.0102
1760000019460,51107,0.0170,-0.9864,0.1065,0.0092,0.0107,0.0482
1760000019480,50492,0.0195,-0.9853,0.1006,-0.0136,0.0202,0.0193
1760000019500,49917,0.0178,-0.9833,0.0925,-0.0128,0.0032,0.0408
1760000019520,49506,0.0156,-0.9799,0.1022,-0.0325,-0.0239,-0.0094
1760000019540,48949,0.0235,-0.9757,0.0902,-0.0084,0.0089,0.0208
1760000019560,48541,0.0171,-0.9749,0.1064,0.0176,0.0113,-0.0067
1760000019580,48089,0.0199,-0.9929,0.0973,-0.0023,-0.0156,-0.0213
1760000019600,47848,0.0127,-0.9812,0.0925,-0.0330,-0.0069,0.0339
1760000019620,47654,0.0262,-0.9800,0.1000,-0.0224,-0.0156,0.0001
1760000019640,47522,0.0278,-0.9751,0.0965,-0.0020,-0.0136,0.0252
1760000019660,47625,0.0193,-0.9773,0.1079,0.0084,0.0055,-0.0053
1760000019680,47536,0.0216,-0.9778,0.0985,0.0270,-0.0301,0.0271
1760000019700,48016,0.0198,-0.9735,0.1023,-0.0338,-0.0262,-0.0238
1760000019720,48287,0.0264,-0.9869,0.1011,-0.0235,-0.0159,-0.0287
1760000019740,48388,0.0243,-0.9803,0.1068,0.0351,-0.0291,-0.0062
1760000019760,48978,0.0224,-0.9801,0.1023,0.0306,-0.0144,0.0168
1760000019780,49415,0.0191,-0.9871,0.0983,-0.0076,0.0151,0.0133
1760000019800,50055,0.0219,-0.9808,0.0977,-0.0121,-0.0291,-0.0043
1760000019820,50511,0.0204,-0.9825,0.0921,0.0086,0.0331,0.0086
1760000019840,51011,0.0216,-0.9691,0.1062,-0.0186,-0.0042,-0.0017
1760000019860,51330,0.0100,-0.9804,0.1055,-0.0373,-0.0102,-0.0068
1760000019880,51958,0.0244,-0.9822,0.0905,0.0140,-0.0095,0.0102
1760000019900,52218,0.0229,-0.9730,0.1097,-0.0380,0.0186,0.0015
1760000019920,52374,0.0164,-0.9790,0.1016,-0.0078,0.0199,0.0194
1760000019940,52491,0.0202,-0.9803,0.0988,0.0055,-0.0249,-0.0009
1760000019960,52507,0.0097,-0.9777,0.1003,0.0002,-0.0270,-0.0275
1760000019980,52422,0.0169,-0.9722,0.0928,0.0056,0.0042,0.0329
1760000020000,52105,0.0197,-0.9779,0.0910,0.0450,0.0293,-0.0044
1760000020020,51898,0.0156,-0.9784,0.1011,-0.0057,0.0155,-0.0245
1760000020040,51407,0.0241,-0.9821,0.1003,0.0290,0.0406,-0.0231
1760000020060,50995,0.0218,-0.9750,0.1068,0.0518,0.0157,-0.0027
1760000020080,50536,0.0248,-0.9756,0.0989,-0.0222,0.0218,-0.0030
1760000020100,49983,0.0188,-0.9741,0.0987,0.0204,0.0007,0.0002
1760000020120,49517,0.0214,-0.9832,0.0988,0.0412,0.0130,-0.0041
1760000020140,48972,0.0216,-0.9846,0.1022,0.0170,0.0364,-0.0391
1760000020160,48532,0.0141,-0.9783,0.1169,-0.0145,0.0028,0.0055
1760000020180,48192,0.0106,-0.9784,0.0982,0.0010,-0.0335,0.0247
1760000020200,47836,0.0205,-0.9866,0.0945,-0.0155,0.0073,-0.0021
1760000020220,47650,0.0177,-0.9866,0.0944,0.0204,0.0076,-0.0173
1760000020240,47461,0.0238,-0.9818,0.1100,-0.0094,0.0021,-0.0092
1760000020260,47406,0.0158,-0.9869,0.1012,-0.0123,0.0288,0.0132
1760000020280,47625,0.0175,-0.9846,0.1016,-0.0180,0.0103,-0.0273
1760000020300,47821,0.0153,-0.9842,0.0974,-0.0064,0.0310,-0.0432
1760000020320,48113,0.0225,-0.9787,0.1015,-0.0041,-0.0084,0.0040
1760000020340,48513,0.0255,-0.9841,0.1022,-0.0149,0.0147,-0.0193
1760000020360,49182,0.0144,-0.9849,0.1033,0.0441,-0.0056,0.0099
1760000020380,49439,0.0229,-0.9739,0.0978,0.0001,0.0048,-0.0045
1760000020400,49928,0.0257,-0.9808,0.1013,-0.0108,0.0264,0.0110
1760000020420,50604,0.0109,-0.9730,0.0990,-0.0149,0.0242,0.0099
1760000020440,50992,0.0166,-0.9809,0.1053,-0.0179,0.0064,0.0166
1760000020460,51436,0.0198,-0.9781,0.1126,-0.0109,-0.0084,-0.0301
1760000020480,51872,0.0059,-0.9805,0.0967,0.0393,0.0052,0.0081
1760000020500,52071,0.0184,-0.9809,0.0926,-0.0079,-0.0574,-0.0110
1760000020520,52326,0.0171,-0.9875,0.1030,0.0160,0.0118,0.0209
1760000020540,52424,0.0239,-0.9751,0.0976,-0.0028,-0.0198,0.0410
1760000020560,52535,0.0185,-0.9745,0.1003,0.0144,0.0206,-0.0159
1760000020580,52518,0.0197,-0.9835,0.0977,0.0111,0.0331,0.0259
1760000020600,52195,0.0217,-0.9846,0.0955,0.0103,0.0151,-0.0438
1760000020620,51800,0.0214,-0.9793,0.0875,0.0042,-0.0137,-0.0309
1760000020640,51282,0.0201,-0.9814,0.1027,0.0397,0.0077,0.0358
1760000020660,50970,0.0357,-0.9870,0.0952,0.0131,0.0022,0.0074
1760000020680,50494,0.0244,-0.9832,0.1009,-0.0061,0.0028,0.0023
1760000020700,50011,0.0193,-0.9759,0.0920,0.0043,0.0063,0.0105
1760000020720,49533,0.0181,-0.9744,0.0943,-0.0095,0.0286,0.0079
1760000020740,48977,0.0183,-0.9717,0.1066,-0.0120,-0.0059,-0.0019
1760000020760,48419,0.0233,-0.9797,0.0956,0.0342,0.0121,0.0399
1760000020780,48177,0.0166,-0.9698,0.0941,-0.0285,-0.0065,-0.0236
1760000020800,47762,0.0223,-0.9830,0.1023,0.0152,-0.0141,-0.0075
1760000020820,47692,0.0182,-0.9832,0.0895,0.0012,-0.0341,-0.0101
1760000020840,47541,0.0198,-0.9848,0.1003,0.0107,0.0035,-0.0009
1760000020860,47451,0.0173,-0.9773,0.1035,0.0144,0.0184,0.0105
1760000020880,47688,0.0144,-0.9919,0.0967,-0.0147,0.0220,0.0056
1760000020900,47733,0.0191,-0.9691,0.1046,-0.0309,0.0056,0.0304
1760000020920,48098,0.0264,-0.9844,0.0953,-0.0085,-0.0186,0.0209
1760000020940,48693,0.0170,-0.9868,0.1081,-0.0220,-0.0108,0.0005
1760000020960,48922,0.0238,-0.9802,0.0941,-0.0039,-0.0226,0.0119
1760000020980,49396,0.0192,-0.9811,0.1003,-0.0060,0.0027,0.0378
1760000021000,50040,0.0179,-0.9859,0.0965,-0.0044,0.0351,-0.0303
1760000021020,50681,0.0254,-0.9719,0.0999,-0.0114,0.0099,0.0057
1760000021040,50985,0.0296,-0.9876,0.0929,-0.0001,0.0028,0.0107
1760000021060,51484,0.0159,-0.9706,0.1011,0.0105,0.0156,0.0093
1760000021080,51841,0.0256,-0.9804,0.1055,-0.0085,-0.0005,0.0068
1760000021100,52270,0.0222,-0.9839,0.0936,0.0023,0.0054,-0.0255
1760000021120,52337,0.0142,-0.9800,0.1035,0.0247,-0.0215,-0.0120
1760000021140,52467,0.0222,-0.9826,0.0916,0.0125,-0.0173,0.0363
1760000021160,52514,0.0202,-0.9766,0.1032,-0.0211,0.0124,-0.0377
1760000021180,52407,0.0262,-0.9796,0.0959,0.0168,0.0165,-0.0302
1760000021200,52412,0.0195,-0.9897,0.1067,-0.0050,0.0032,0.0207
1760000021220,51869,0.0240,-0.9823,0.1003,-0.0286,-0.0094,0.0060
1760000021240,51591,0.0276,-0.9828,0.0974,-0.0045,0.0192,0.0243
1760000021260,51030,0.0175,-0.9799,0.0977,0.0122,-0.0053,-0.0220
1760000021280,50537,0.0171,-0.9866,0.1120,0.0186,-0.0022,-0.0039
1760000021300,50176,0.0231,-0.9831,0.1184,-0.0248,0.0036,0.0141
1760000021320,49528,0.0146,-0.9790,0.0922,-0.0403,0.0068,0.0119
1760000021340,48994,0.0221,-0.9804,0.1000,0.0080,-0.0140,0.0038
1760000021360,48539,0.0183,-0.9847,0.0881,-0.0062,0.0193,0.0362
1760000021380,48134,0.0237,-0.9903,0.0951,-0.0124,0.0176,0.0062
1760000021400,47715,0.0262,-0.9945,0.0997,-0.0255,-0.0484,-0.0323
1760000021420,47594,0.0206,-0.9863,0.0980,-0.0063,0.0222,-0.0048
1760000021440,47588,0.0223,-0.9789,0.0892,0.0012,0.0247,-0.0198
1760000021460,47544,0.0219,-0.9772,0.0953,-0.0029,-0.0210,-0.0206
1760000021480,47543,0.0209,-0.9846,0.0963,-0.0017,0.0126,0.0242
1760000021500,47906,0.0192,-0.9856,0.0956,0.0032,0.0115,-0.0023
1760000021520,48041,0.0221,-0.9878,0.0917,-0.0323,-0.0099,0.0102
1760000021540,48683,0.0238,-0.9791,0.0998,-0.0139,-0.0153,-0.0329
1760000021560,49056,0.0137,-0.9802,0.1137,0.0273,0.0004,-0.0115
1760000021580,49474,0.0140,-0.9819,0.0941,-0.0195,0.0226,0.0249
1760000021600,49988,0.0159,-0.9789,0.1074,-0.0163,-0.0118,-0.0060
1760000021620,50500,0.0103,-0.9755,0.1073,0.0283,0.0140,0.0162
1760000021640,51029,0.0190,-0.9817,0.0986,0.0099,-0.0325,0.0069
1760000021660,51373,0.0153,-0.9834,0.1020,0.0111,0.0030,-0.0128
1760000021680,51805,0.0257,-0.9750,0.0996,-0.0137,0.0123,-0.0235
1760000021700,52156,0.0195,-0.9767,0.1102,0.0155,0.0094,-0.0198
1760000021720,52459,0.0210,-0.9776,0.0982,-0.0030,0.0043,0.0032
1760000021740,52509,0.0169,-0.9725,0.0983,-0.0238,0.0213,0.0075
1760000021760,52473,0.0263,-0.9796,0.1036,-0.0449,-0.0060,-0.0264
1760000021780,52380,0.0173,-0.9847,0.0993,-0.0285,0.0540,0.0131
1760000021800,52107,0.0159,-0.9812,0.0956,-0.0211,-0.0017,0.0162
1760000021820,51875,0.0179,-0.9824,0.1029,0.0045,-0.0124,0.0200
1760000021840,51494,0.0307,-0.9770,0.0992,-0.0432,0.0079,0.0003
1760000021860,51046,0.0185,-0.9726,0.0989,0.0256,0.0041,0.0123
1760000021880,50514,0.0133,-0.9839,0.0925,-0.0040,0.0267,-0.0250
1760000021900,50021,0.0142,-0.9766,0.0924,-0.0023,-0.0274,-0.0259
1760000021920,49509,0.0192,-0.9760,0.1071,-0.0074,-0.0079,-0.0030
1760000021940,48866,0.0165,-0.9831,0.0943,0.0236,0.0172,-0.0149
1760000021960,48544,0.0229,-0.9849,0.1021,-0.0136,-0.0010,0.0046
1760000021980,48094,0.0222,-0.9813,0.1007,0.0119,-0.0029,-0.0060
1760000022000,47827,0.0203,-0.9777,0.1047,-0.0127,0.0440,-0.0030
1760000022020,47609,0.0197,-0.9760,0.1031,0.0219,-0.0047,-0.0158
1760000022040,47487,0.0205,-0.9869,0.0970,-0.0089,-0.0271,-0.0416
1760000022060,47576,0.0209,-0.9778,0.0996,0.0203,-0.0007,-0.0020
1760000022080,47604,0.0230,-0.9875,0.1047,0.0018,-0.0074,0.0162
1760000022100,47892,0.0178,-0.9762,0.0957,-0.0487,0.0304,-0.0092
1760000022120,48080,0.0147,-0.9889,0.0982,0.0133,-0.0047,-0.0060
1760000022140,48578,0.0193,-0.9771,0.1069,0.0243,0.0133,-0.0078
1760000022160,48962,0.0154,-0.9780,0.1015,-0.0283,-0.0245,-0.0116
1760000022180,49447,0.0250,-0.9754,0.1115,0.0086,0.0041,-0.0132
1760000022200,49925,0.0168,-0.9799,0.0965,-0.0136,0.0287,-0.0236
1760000022220,50574,0.0143,-0.9834,0.1077,0.0521,-0.0054,-0.0244
1760000022240,51017,0.0241,-0.9776,0.1020,0.0047,-0.0110,-0.0043
1760000022260,51595,0.0241,-0.9762,0.1070,-0.0052,-0.0045,0.0124
1760000022280,51916,0.0095,-0.9835,0.0925,0.0176,0.0081,0.0092
1760000022300,52185,0.0188,-0.9831,0.1000,-0.0185,-0.0154,-0.0118
1760000022320,52417,0.0151,-0.9784,0.0912,-0.0051,0.0069,-0.0086
1760000022340,52473,0.0257,-0.9720,0.1034,-0.0313,0.0224,0.0247
1760000022360,52619,0.0278,-0.9826,0.1009,-0.0049,0.0226,0.0176
1760000022380,52257,0.0215,-0.9734,0.1010,-0.0142,0.0011,0.0187
1760000022400,52234,0.0188,-0.9813,0.0998,-0.0030,-0.0082,-0.0188
1760000022420,51881,0.0149,-0.9862,0.1013,-0.0246,-0.0133,-0.0278
1760000022440,51586,0.0200,-0.9874,0.0918,0.0009,-0.0074,-0.0414
1760000022460,51086,0.0203,-0.9825,0.0971,0.0257,0.0011,0.0073
1760000022480,50374,0.0213,-0.9798,0.1068,-0.0249,-0.0084,0.0082
1760000022500,50025,0.0233,-0.9750,0.0911,0.0145,0.0153,-0.0304
1760000022520,49498,0.0210,-0.9758,0.1010,-0.0024,-0.0217,0.0433
1760000022540,49037,0.0225,-0.9761,0.0990,-0.0035,-0.0051,0.0164
1760000022560,48495,0.0141,-0.9698,0.1025,0.0165,0.0061,0.0022
1760000022580,48224,0.0218,-0.9865,0.0906,-0.0180,0.0015,-0.0154
1760000022600,47911,0.0212,-0.9843,0.1004,-0.0673,-0.0065,0.0205
1760000022620,47617,0.0157,-0.9771,0.0940,0.0004,0.0309,0.0353
1760000022640,47566,0.0246,-0.9818,0.1009,-0.0316,0.0101,0.0021
1760000022660,47555,0.0182,-0.9891,0.0977,0.0323,-0.0133,0.0070
1760000022680,47822,0.0251,-0.9840,0.1015,-0.0193,-0.0176,0.0320
1760000022700,47868,0.0149,-0.9824,0.0979,0.0115,0.0029,0.0505
1760000022720,48196,0.0260,-0.9744,0.1011,0.0159,0.0053,-0.0258
1760000022740,48472,0.0284,-0.9751,0.1014,-0.0264,0.0065,0.0089
1760000022760,48975,0.0235,-0.9780,0.0958,-0.0091,0.0154,0.0275
1760000022780,49481,0.0243,-0.9777,0.1060,-0.0003,0.0031,-0.0222
1760000022800,49889,0.0198,-0.9765,0.0973,-0.0026,0.0102,-0.0076
1760000022820,50415,0.0180,-0.9805,0.0957,-0.0102,-0.0120,-0.0005
1760000022840,51056,0.0247,-0.9786,0.0952,0.0070,0.0239,0.0151
1760000022860,51461,0.0201,-0.9863,0.0940,0.0122,0.0264,0.0172
1760000022880,51838,0.0189,-0.9831,0.1037,0.0014,-0.0282,-0.0490
1760000022900,52341,0.0208,-0.9732,0.1106,0.0016,-0.0052,0.0007
1760000022920,52481,0.0133,-0.9814,0.1056,0.0214,0.0015,-0.0042
1760000022940,52518,0.0191,-0.9806,0.0975,-0.0237,0.0401,-0.0042
1760000022960,52480,0.0155,-0.9800,0.1046,0.0170,0.0214,0.0087
1760000022980,52443,0.0153,-0.9874,0.1002,-0.0200,-0.0398,0.0058
1760000023000,52150,0.0107,-0.9843,0.1075,0.0216,-0.0260,0.0110
1760000023020,52027,0.0144,-0.9806,0.1023,-0.0260,-0.0173,0.0239
1760000023040,51507,0.0266,-0.9791,0.0955,-0.0024,0.0331,0.0110
1760000023060,51008,0.0226,-0.9708,0.1029,0.0126,-0.0075,-0.0229
1760000023080,50432,0.0263,-0.9851,0.1025,0.0469,-0.0042,0.0191
1760000023100,49964,0.0160,-0.9819,0.0957,0.0109,-0.0071,-0.0168
1760000023120,49487,0.0185,-0.9792,0.0968,0.0354,0.0286,-0.0298
1760000023140,49116,0.0158,-0.9800,0.1029,-0.0049,-0.0099,0.0186
1760000023160,48406,0.0195,-0.9809,0.1065,-0.0055,0.0273,0.0096
1760000023180,48214,0.0232,-0.9754,0.0995,0.0035,0.0022,-0.0195
1760000023200,47856,0.0174,-0.9754,0.1031,0.0073,-0.0273,-0.0039
1760000023220,47541,0.0266,-0.9875,0.0945,-0.0099,0.0174,-0.0051
1760000023240,47433,0.0211,-0.9676,0.1006,-0.0023,-0.0087,-0.0155
1760000023260,47452,0.0183,-0.9836,0.0999,-0.0347,-0.0160,-0.0035
1760000023280,47604,0.0177,-0.9787,0.0976,0.0143,-0.0139,-0.0117
1760000023300,47749,0.0181,-0.9877,0.1043,-0.0084,0.0148,0.0179
1760000023320,48272,0.0194,-0.9851,0.1033,0.0024,0.0004,0.0199
1760000023340,48491,0.0213,-0.9726,0.1008,0.0022,-0.0379,0.0120
1760000023360,48863,0.0215,-0.9742,0.1008,0.0114,-0.0085,0.0146
1760000023380,49438,0.0261,-0.9820,0.0906,0.0056,0.0408,-0.0164
1760000023400,49889,0.0277,-0.9751,0.0959,0.0003,-0.0166,0.0088
1760000023420,50523,0.0190,-0.9764,0.0984,0.0232,-0.0111,-0.0054
1760000023440,51059,0.0158,-0.9865,0.0968,-0.0129,0.0447,-0.0298
1760000023460,51529,0.0322,-0.9913,0.1066,-0.0460,0.0130,0.0062
1760000023480,51835,0.0230,-0.9781,0.1021,-0.0217,-0.0233,-0.0162
1760000023500,52264,0.0221,-0.9686,0.0996,0.0418,-0.0109,0.0089
1760000023520,52344,0.0218,-0.9813,0.0968,-0.0121,-0.0064,0.0222
1760000023540,52619,0.0214,-0.9851,0.0901,0.0023,0.0377,0.0199
1760000023560,52500,0.0251,-0.9744,0.1088,-0.0337,0.0011,-0.0075
1760000023580,52448,0.0227,-0.9836,0.1014,-0.0123,0.0152,-0.0208
1760000023600,52128,0.0191,-0.9798,0.0912,0.0148,-0.0060,0.0010
1760000023620,51884,0.0184,-0.9795,0.1003,0.0344,-0.0075,0.0142
1760000023640,51397,0.0120,-0.9788,0.1055,0.0035,0.0260,-0.0017
1760000023660,51029,0.0199,-0.9862,0.1045,0.0124,-0.0076,0.0332
1760000023680,50400,0.0176,-0.9927,0.1034,0.0365,-0.0004,-0.0001
1760000023700,50055,0.0282,-0.9779,0.0968,0.0080,-0.0073,0.0167
1760000023720,49567,0.0171,-0.9763,0.0931,-0.0256,0.0215,0.0043
1760000023740,48868,0.0165,-0.9699,0.1097,-0.0251,0.0106,0.0299
1760000023760,48376,0.0200,-0.9820,0.0976,0.0181,-0.0061,0.0202
1760000023780,48074,0.0156,-0.9828,0.1098,0.0454,-0.0387,0.0061
1760000023800,47700,0.0267,-0.9879,0.0941,-0.0316,0.0233,0.0107
1760000023820,47693,0.0231,-0.9786,0.1053,-0.0126,-0.0101,-0.0229
1760000023840,47506,0.0131,-0.9771,0.1020,0.0248,-0.0053,-0.0103
1760000023860,47499,0.0211,-0.9739,0.0920,0.0161,-0.0212,0.0385
1760000023880,47603,0.0187,-0.9798,0.1063,-0.0116,0.0158,-0.0171
1760000023900,47752,0.0100,-0.9766,0.0969,0.0016,-0.0180,0.0150
1760000023920,48149,0.0168,-0.9772,0.0977,-0.0199,0.0401,-0.0053
1760000023940,48581,0.0133,-0.9797,0.0982,-0.0226,0.0099,0.0123
1760000023960,49014,0.0296,-0.9812,0.1063,0.0113,-0.0101,-0.0079
1760000023980,49336,0.0225,-0.9786,0.1021,-0.0060,0.0292,-0.0109
1760000024000,50048,0.0253,-0.9793,0.0971,-0.0179,-0.0235,0.0114
1760000024020,50546,0.0222,-0.9722,0.1043,0.0278,-0.0027,0.0364
1760000024040,51038,0.0207,-0.9799,0.1030,0.0346,-0.0088,0.0127
1760000024060,51388,0.0167,-0.9783,0.1192,0.0621,0.0096,-0.0238
1760000024080,51896,0.0149,-0.9833,0.1032,0.0289,-0.0378,-0.0082
1760000024100,52044,0.0128,-0.9816,0.1079,-0.0107,0.0195,-0.0124
1760000024120,52375,0.0208,-0.9700,0.0983,0.0091,0.0098,0.0197
1760000024140,52458,0.0207,-0.9827,0.0918,-0.0176,0.0012,-0.0149
1760000024160,52548,0.0196,-0.9830,0.1061,0.0322,-0.0115,-0.0010
1760000024180,52386,0.0185,-0.9812,0.0987,0.0017,0.0166,0.0322
1760000024200,52197,0.0182,-0.9835,0.0910,0.0049,-0.0004,-0.0150
1760000024220,51849,0.0255,-0.9755,0.1087,0.0212,0.0411,0.0258
1760000024240,51552,0.0238,-0.9806,0.1067,-0.0023,-0.0024,0.0206
1760000024260,50937,0.0122,-0.9827,0.1082,-0.0372,0.0036,-0.0181
1760000024280,50381,0.0155,-0.9817,0.0993,0.0565,0.0442,-0.0287
1760000024300,50019,0.0214,-0.9774,0.0916,0.0029,0.0138,0.0028
1760000024320,49403,0.0201,-0.9791,0.1004,-0.0354,-0.0199,0.0140
1760000024340,49064,0.0116,-0.9780,0.1067,-0.0326,0.0175,0.0152
1760000024360,48544,0.0140,-0.9745,0.1042,0.0096,-0.0289,-0.0184
1760000024380,48135,0.0258,-0.9728,0.1054,0.0056,-0.0295,-0.0178
1760000024400,47753,0.0232,-0.9790,0.1040,-0.0119,0.0034,0.0080
1760000024420,47627,0.0248,-0.9737,0.0993,0.0081,0.0165,0.0177
1760000024440,47333,0.0169,-0.9773,0.0962,-0.0235,0.0038,-0.0404
1760000024460,47631,0.0210,-0.9831,0.0994,0.0262,-0.0041,-0.0149
1760000024480,47524,0.0232,-0.9814,0.1037,-0.0328,-0.0089,0.0164
1760000024500,47834,0.0181,-0.9802,0.0956,0.0130,-0.0062,0.0002
1760000024520,48127,0.0190,-0.9828,0.0977,-0.0002,-0.0165,-0.0157
1760000024540,48456,0.0083,-0.9751,0.1055,-0.0076,-0.0032,0.0022
1760000024560,48829,0.0244,-0.9833,0.0981,-0.0151,-0.0067,-0.0180
1760000024580,49473,0.0104,-0.9803,0.1034,0.0174,-0.0020,0.0219
1760000024600,50021,0.0216,-0.9790,0.0918,-0.0152,-0.0074,-0.0038
1760000024620,50434,0.0233,-0.9811,0.0964,0.0238,0.0091,0.0175
1760000024640,50938,0.0218,-0.9845,0.0977,-0.0046,0.0215,-0.0138
1760000024660,51381,0.0129,-0.9781,0.0963,0.0270,0.0137,0.0118
1760000024680,51890,0.0223,-0.9721,0.1006,0.0116,-0.0415,0.0269
1760000024700,52183,0.0148,-0.9730,0.0965,0.0288,0.0203,0.0028
1760000024720,52495,0.0194,-0.9752,0.0992,-0.0162,0.0201,0.0218
1760000024740,52531,0.0221,-0.9780,0.0999,-0.0430,0.0230,-0.0081
1760000024760,52681,0.0166,-0.9776,0.0995,0.0109,0.0206,0.0144
1760000024780,52273,0.0141,-0.9761,0.1060,-0.0025,-0.0159,-0.0133
1760000024800,52133,0.0195,-0.9747,0.0994,-0.0015,-0.0132,0.0159
1760000024820,51869,0.0215,-0.9787,0.1076,0.0023,-0.0118,-0.0112
1760000024840,51518,0.0250,-0.9904,0.0989,-0.0137,-0.0282,-0.0185
1760000024860,51018,0.0222,-0.9788,0.0989,-0.0004,-0.0124,0.0158
1760000024880,50564,0.0172,-0.9859,0.1056,0.0180,0.0037,-0.0119
1760000024900,50032,0.0231,-0.9774,0.0955,-0.0010,0.0083,-0.0211
1760000024920,49504,0.0171,-0.9747,0.1027,0.0186,0.0098,-0.0179
1760000024940,48996,0.0164,-0.9821,0.1064,0.0253,-0.0501,-0.0033
1760000024960,48373,0.0204,-0.9786,0.0917,-0.0292,-0.0421,-0.0229
1760000024980,48085,0.0099,-0.9752,0.1069,0.0109,0.0125,0.0096
1760000025000,47744,0.0304,-0.9845,0.1056,-0.0046,0.0101,0.0089
1760000025020,47509,0.0191,-0.9807,0.1033,-0.0172,-0.0212,-0.0140
1760000025040,47308,0.0141,-0.9753,0.0970,-0.0199,-0.0126,0.0096
1760000025060,47551,0.0163,-0.9876,0.0977,-0.0178,-0.0283,-0.0087
1760000025080,47579,0.0198,-0.9869,0.1041,-0.0102,-0.0225,0.0190
1760000025100,47855,0.0263,-0.9792,0.1065,-0.0163,0.0311,-0.0307
1760000025120,48207,0.0187,-0.9785,0.0989,0.0258,-0.0194,0.0048
1760000025140,48487,0.0131,-0.9902,0.1031,-0.0097,-0.0161,0.0151
1760000025160,48961,0.0192,-0.9828,0.1011,0.0085,0.0035,0.0121
1760000025180,49489,0.0126,-0.9837,0.0954,0.0245,0.0221,0.0175
1760000025200,50016,0.0264,-0.9791,0.0948,-0.0271,-0.0166,0.0010
1760000025220,50607,0.0135,-0.9719,0.1004,-0.0158,0.0215,-0.0195
1760000025240,50961,0.0218,-0.9835,0.1030,-0.0390,0.0161,-0.0310
1760000025260,51516,0.0222,-0.9788,0.0981,0.0161,0.0259,-0.0227
1760000025280,51906,0.0234,-0.9792,0.1011,0.0431,0.0044,-0.0312
1760000025300,52156,0.0245,-0.9773,0.0948,-0.0068,0.0100,0.0154
1760000025320,52339,0.0141,-0.9815,0.1071,0.0093,0.0034,0.0132
1760000025340,52424,0.0165,-0.9817,0.0992,0.0107,-0.0180,0.0348
1760000025360,52530,0.0145,-0.9816,0.1020,-0.0412,-0.0174,-0.0193
1760000025380,52378,0.0230,-0.9778,0.0951,-0.0400,0.0091,0.0134
1760000025400,52184,0.0182,-0.9864,0.0907,0.0147,-0.0070,-0.0198
1760000025420,51899,0.0221,-0.9774,0.1063,-0.0108,-0.0298,-0.0252
1760000025440,51395,0.0165,-0.9800,0.0974,0.0074,-0.0244,0.0368
1760000025460,51034,0.0271,-0.9833,0.0950,0.0220,0.0031,-0.0015
1760000025480,50552,0.0231,-0.9780,0.1004,0.0568,0.0192,-0.0529
1760000025500,49902,0.0238,-0.9788,0.0997,0.0192,0.0011,-0.0029
1760000025520,49472,0.0201,-0.9810,0.1110,-0.0130,-0.0006,0.0154
1760000025540,48995,0.0197,-0.9851,0.0997,0.0050,0.0045,0.0005
1760000025560,48483,0.0165,-0.9749,0.1060,-0.0099,-0.0121,-0.0206
1760000025580,48213,0.0281,-0.9723,0.0990,0.0101,-0.0247,0.0024
1760000025600,47777,0.0197,-0.9745,0.0911,-0.0159,0.0040,-0.0040
1760000025620,47537,0.0224,-0.9779,0.1022,0.0408,-0.0055,-0.0000
1760000025640,47524,0.0254,-0.9810,0.1011,0.0464,-0.0370,-0.0202
1760000025660,47411,0.0134,-0.9747,0.1034,-0.0139,0.0138,-0.0025
1760000025680,47624,0.0273,-0.9787,0.1014,-0.0344,-0.0054,-0.0096
1760000025700,47744,0.0242,-0.9824,0.1075,-0.0038,-0.0190,0.0487
1760000025720,48216,0.0213,-0.9767,0.0924,-0.0111,0.0024,0.0094
1760000025740,48529,0.0168,-0.9738,0.0940,-0.0008,-0.0477,0.0378
1760000025760,49147,0.0180,-0.9688,0.1024,0.0038,-0.0081,0.0273
1760000025780,49359,0.0190,-0.9737,0.0909,0.0008,0.0180,-0.0299
1760000025800,50136,0.0206,-0.9894,0.1016,-0.0026,0.0299,-0.0127
1760000025820,50515,0.0229,-0.9864,0.1029,0.0002,-0.0106,-0.0092
1760000025840,50985,0.0194,-0.9712,0.1004,0.0109,-0.0150,0.0173
1760000025860,51547,0.0157,-0.9688,0.1021,-0.0254,-0.0063,-0.0159
1760000025880,51930,0.0294,-0.9664,0.0983,-0.0083,0.0351,0.0004
1760000025900,52104,0.0190,-0.9811,0.1025,0.0095,-0.0303,-0.0176
1760000025920,52402,0.0262,-0.9763,0.1029,-0.0087,0.0151,-0.0066
1760000025940,52581,0.0238,-0.9775,0.0972,0.0079,0.0029,-0.0161
1760000025960,52451,0.0251,-0.9831,0.0989,0.0251,-0.0131,0.0026
1760000025980,52376,0.0185,-0.9786,0.1074,0.0290,-0.0090,0.0062
1760000026000,52295,0.0246,-0.9816,0.0951,0.0137,0.0148,0.0106
1760000026020,51801,0.0211,-0.9765,0.0979,-0.0011,0.0292,0.0156
1760000026040,51413,0.0230,-0.9750,0.0915,-0.0195,0.0123,-0.0188
1760000026060,50998,0.0151,-0.9795,0.0995,0.0106,-0.0225,-0.0006
1760000026080,50562,0.0219,-0.9802,0.0890,-0.0372,0.0200,0.0295
1760000026100,49939,0.0189,-0.9856,0.1019,-0.0170,0.0275,-0.0203
1760000026120,49385,0.0236,-0.9804,0.1025,0.0272,0.0343,-0.0471
1760000026140,48945,0.0274,-0.9812,0.0921,-0.0151,0.0091,0.0077
1760000026160,48515,0.0144,-0.9716,0.1063,-0.0000,-0.0539,0.0156
1760000026180,48054,0.0177,-0.9732,0.1037,0.0055,-0.0025,-0.0210
1760000026200,47701,0.0247,-0.9791,0.0974,0.0401,0.0170,-0.0114
1760000026220,47467,0.0213,-0.9821,0.0931,0.0321,-0.0211,-0.0155
1760000026240,47435,0.0119,-0.9715,0.0987,0.0238,0.0132,0.0217
1760000026260,47596,0.0211,-0.9760,0.1058,-0.0275,-0.0023,0.0134
1760000026280,47645,0.0248,-0.9841,0.1041,0.0320,0.0084,0.0110
1760000026300,47748,0.0200,-0.9894,0.0990,0.0013,-0.0046,-0.0625
1760000026320,48061,0.0260,-0.9808,0.1033,-0.0213,0.0033,-0.0115
1760000026340,48575,0.0118,-0.9836,0.1009,0.0218,-0.0047,0.0092
1760000026360,48758,0.0219,-0.9890,0.0934,0.0088,-0.0303,0.0033
1760000026380,49432,0.0126,-0.9830,0.1015,-0.0189,-0.0186,0.0312
1760000026400,49966,0.0330,-0.9744,0.1015,0.0053,-0.0044,-0.0058
1760000026420,50530,0.0097,-0.9831,0.0942,-0.0162,-0.0164,-0.0495
1760000026440,51026,0.0204,-0.9819,0.0971,0.0040,-0.0241,0.0120
1760000026460,51457,0.0193,-0.9807,0.0988,0.0315,-0.0031,0.0083
1760000026480,51866,0.0169,-0.9836,0.1000,-0.0307,-0.0085,-0.0030
1760000026500,52241,0.0181,-0.9729,0.1013,0.0161,0.0057,0.0472
1760000026520,52315,0.0242,-0.9630,0.1065,0.0119,0.0485,-0.0145
1760000026540,52688,0.0171,-0.9779,0.1067,-0.0100,0.0403,-0.0050
1760000026560,52419,0.0202,-0.9787,0.1020,0.0032,-0.0177,-0.0271
1760000026580,52387,0.0244,-0.9761,0.1035,-0.0250,-0.0021,-0.0111
1760000026600,52222,0.0223,-0.9840,0.1001,-0.0163,0.0050,0.0058
1760000026620,51900,0.0251,-0.9778,0.0950,-0.0307,-0.0080,0.0082
1760000026640,51468,0.0162,-0.9882,0.0949,0.0219,0.0521,0.0260
1760000026660,51094,0.0135,-0.9853,0.1129,-0.0459,-0.0037,0.0187
1760000026680,50410,0.0226,-0.9875,0.0974,-0.0129,-0.0136,-0.0387
1760000026700,49930,0.0208,-0.9828,0.0955,0.0046,0.0026,0.0176
1760000026720,49574,0.0233,-0.9861,0.1019,-0.0060,0.0086,-0.0253
1760000026740,48951,0.0212,-0.9795,0.1095,-0.0154,0.0132,0.0198
1760000026760,48481,0.0126,-0.9851,0.1032,0.0106,-0.0024,-0.0139
1760000026780,48196,0.0125,-0.9719,0.0947,-0.0432,0.0145,-0.0052
1760000026800,47877,0.0143,-0.9846,0.0947,-0.0198,-0.0204,0.0305
1760000026820,47535,0.0342,-0.9839,0.0995,-0.0121,0.0039,0.0005
1760000026840,47524,0.0197,-0.9820,0.1008,-0.0009,0.0165,0.0145
1760000026860,47403,0.0138,-0.9873,0.1039,-0.0128,0.0140,0.0057
1760000026880,47604,0.0195,-0.9832,0.0995,0.0152,0.0031,-0.0079
1760000026900,47835,0.0228,-0.9900,0.0999,-0.0277,0.0295,0.0018
1760000026920,48050,0.0214,-0.9784,0.0956,-0.0199,-0.0178,0.0242
1760000026940,48484,0.0151,-0.9825,0.0963,0.0043,0.0039,0.0270
1760000026960,49183,0.0214,-0.9786,0.1058,0.0082,-0.0201,0.0127
1760000026980,49503,0.0248,-0.9774,0.1009,-0.0059,-0.0005,0.0333
1760000027000,50042,0.0220,-0.9753,0.0973,-0.0311,-0.0185,0.0017
1760000027020,50536,0.0258,-0.9803,0.0979,0.0209,0.0083,0.0266
1760000027040,51068,0.0139,-0.9871,0.1030,0.0142,-0.0216,-0.0148
1760000027060,51520,0.0238,-0.9796,0.0971,-0.0072,-0.0290,-0.0009
1760000027080,51899,0.0171,-0.9799,0.1032,0.0168,-0.0198,0.0287
1760000027100,52295,0.0087,-0.9728,0.0895,-0.0518,-0.0010,-0.0472
1760000027120,52375,0.0231,-0.9813,0.0969,0.0303,-0.0143,0.0068
1760000027140,52553,0.0100,-0.9790,0.1008,-0.0163,0.0165,0.0319
1760000027160,52439,0.0281,-0.9762,0.1027,0.0048,-0.0261,0.0257
1760000027180,52345,0.0292,-0.9789,0.0943,-0.0261,0.0025,-0.0084
1760000027200,52191,0.0130,-0.9787,0.0976,0.0256,-0.0044,-0.0263
1760000027220,51916,0.0183,-0.9786,0.1027,-0.0228,-0.0167,0.0143
1760000027240,51455,0.0258,-0.9851,0.1086,-0.0122,-0.0018,0.0066
1760000027260,51014,0.0208,-0.9843,0.1114,0.0036,-0.0259,-0.0174
1760000027280,50400,0.0255,-0.9770,0.0944,-0.0015,0.0402,-0.0075
1760000027300,49953,0.0293,-0.9718,0.1032,-0.0384,0.0083,0.0163
1760000027320,49445,0.0210,-0.9860,0.1016,0.0385,-0.0102,0.0571
1760000027340,48872,0.0171,-0.9756,0.1038,-0.0327,-0.0018,0.0079
1760000027360,48590,0.0208,-0.9834,0.1006,0.0185,-0.0099,0.0161
1760000027380,48171,0.0152,-0.9842,0.0981,0.0020,-0.0081,0.0542
1760000027400,47854,0.0165,-0.9924,0.0961,-0.0031,-0.0038,0.0105
1760000027420,47537,0.0180,-0.9765,0.1010,0.0341,-0.0104,-0.0034
1760000027440,47626,0.0231,-0.9789,0.1036,-0.0263,-0.0096,0.0138
1760000027460,47477,0.0283,-0.9874,0.1045,0.0008,-0.0003,-0.0028
1760000027480,47544,0.0125,-0.9812,0.0991,-0.0110,-0.0233,0.0076
1760000027500,47908,0.0215,-0.9749,0.1091,-0.0035,-0.0232,0.0122
1760000027520,48081,0.0119,-0.9812,0.1037,0.0129,-0.0058,-0.0116
1760000027540,48532,0.0196,-0.9799,0.1025,-0.0020,-0.0009,0.0013
1760000027560,49164,0.0159,-0.9735,0.0972,-0.0169,0.0169,0.0121
1760000027580,49518,0.0082,-0.9821,0.1094,-0.0051,-0.0177,0.0263
1760000027600,50046,0.0120,-0.9785,0.0940,-0.0019,0.0015,0.0217
1760000027620,50565,0.0175,-0.9750,0.1058,0.0122,-0.0271,-0.0169
1760000027640,51005,0.0168,-0.9810,0.0983,0.0037,0.0079,-0.0211
1760000027660,51399,0.0216,-0.9813,0.0936,0.0005,-0.0132,-0.0011
1760000027680,51951,0.0173,-0.9845,0.1048,0.0018,-0.0053,0.0036
1760000027700,52193,0.0137,-0.9842,0.1001,0.0156,-0.0038,0.0058
1760000027720,52374,0.0166,-0.9787,0.0993,-0.0376,0.0106,-0.0185
1760000027740,52632,0.0159,-0.9830,0.0922,-0.0230,-0.0026,-0.0058
1760000027760,52546,0.0260,-0.9816,0.1011,0.0299,-0.0159,-0.0129
1760000027780,52499,0.0250,-0.9817,0.0975,-0.0100,0.0028,0.0241
1760000027800,52294,0.0145,-0.9738,0.0968,0.0206,-0.0298,-0.0226
1760000027820,51726,0.0337,-0.9866,0.1030,-0.0293,0.0092,-0.0207
1760000027840,51369,0.0160,-0.9785,0.1049,0.0018,-0.0221,-0.0433
1760000027860,50934,0.0243,-0.9793,0.0972,-0.0063,-0.0042,0.0162
1760000027880,50493,0.0238,-0.9769,0.1012,0.0024,0.0106,0.0337
1760000027900,50003,0.0179,-0.9767,0.0950,0.0085,0.0004,0.0369
1760000027920,49511,0.0231,-0.9773,0.0983,0.0148,0.0344,-0.0233
1760000027940,49188,0.0279,-0.9750,0.0949,-0.0017,-0.0024,0.0030
1760000027960,48595,0.0238,-0.9819,0.1025,-0.0018,-0.0030,0.0141
1760000027980,48186,0.0245,-0.9760,0.0921,-0.0083,-0.0096,0.0478
1760000028000,47852,0.0298,-0.9825,0.1114,0.0061,-0.0060,-0.0210
1760000028020,47600,0.0177,-0.9784,0.0983,-0.0036,-0.0282,-0.0181
1760000028040,47482,0.0242,-0.9807,0.0953,0.0009,-0.0288,-0.0016
1760000028060,47502,0.0146,-0.9807,0.1054,-0.0025,0.0023,-0.0121
1760000028080,47566,0.0246,-0.9839,0.0936,-0.0120,-0.0020,0.0286
1760000028100,47849,0.0261,-0.9868,0.1008,0.0182,-0.0009,0.0392
1760000028120,48121,0.0133,-0.9836,0.1013,0.0047,0.0184,-0.0128
1760000028140,48404,0.0199,-0.9892,0.1063,0.0038,-0.0343,0.0241
1760000028160,49025,0.0237,-0.9728,0.0955,0.0408,0.0066,-0.0061
1760000028180,49580,0.0269,-0.9761,0.1043,-0.0160,-0.0302,-0.0077
1760000028200,50080,0.0168,-0.9833,0.1028,-0.0255,-0.0261,0.0272
1760000028220,50444,0.0123,-0.9771,0.1020,-0.0120,-0.0020,0.0140
1760000028240,51055,0.0208,-0.9720,0.1011,-0.0441,-0.0040,0.0271
1760000028260,51382,0.0202,-0.9808,0.1022,-0.0128,-0.0286,0.0188
1760000028280,51859,0.0160,-0.9886,0.0962,0.0157,0.0041,0.0067
1760000028300,52183,0.0155,-0.9811,0.0959,0.0159,0.0320,-0.0061
1760000028320,52553,0.0170,-0.9835,0.0976,0.0056,0.0373,0.0063
1760000028340,52504,0.0229,-0.9798,0.1035,0.0059,-0.0133,-0.0090
1760000028360,52575,0.0248,-0.9756,0.1013,-0.0070,-0.0077,0.0109
1760000028380,52378,0.0288,-0.9710,0.0993,0.0039,0.0396,0.0172
1760000028400,52082,0.0178,-0.9762,0.0903,0.0146,0.0100,0.0061
1760000028420,51813,0.0236,-0.9776,0.0976,0.0292,0.0052,0.0161
1760000028440,51414,0.0234,-0.9824,0.0990,0.0106,-0.0011,0.0019
1760000028460,51001,0.0183,-0.9748,0.0954,-0.0212,-0.0047,0.0007
1760000028480,50461,0.0167,-0.9851,0.0917,-0.0077,0.0023,0.0333
1760000028500,49876,0.0237,-0.9790,0.1064,-0.0116,0.0154,-0.0391
1760000028520,49505,0.0198,-0.9805,0.1043,0.0380,-0.0095,0.0405
1760000028540,49020,0.0214,-0.9841,0.0938,-0.0211,0.0056,0.0129
1760000028560,48434,0.0140,-0.9802,0.1109,0.0108,0.0281,-0.0000
1760000028580,48142,0.0250,-0.9818,0.1010,-0.0003,0.0186,0.0211
1760000028600,47740,0.0255,-0.9920,0.1048,0.0138,0.0124,-0.0103
1760000028620,47621,0.0207,-0.9744,0.1023,-0.0031,0.0324,-0.0033
1760000028640,47317,0.0178,-0.9873,0.0986,-0.0344,-0.0040,0.0096
1760000028660,47537,0.0196,-0.9883,0.0965,0.0096,-0.0171,0.0234
1760000028680,47628,0.0217,-0.9855,0.0906,-0.0162,0.0313,0.0165
1760000028700,47868,0.0290,-0.9886,0.1017,-0.0262,-0.0168,-0.0402
1760000028720,47989,0.0166,-0.9800,0.0909,-0.0220,0.0094,-0.0104
1760000028740,48501,0.0194,-0.9826,0.1058,-0.0035,0.0321,-0.0200
1760000028760,49021,0.0259,-0.9775,0.0931,-0.0109,-0.0124,0.0048
1760000028780,49560,0.0206,-0.9822,0.0940,-0.0381,-0.0180,-0.0082
1760000028800,49987,0.0249,-0.9872,0.0988,0.0010,0.0061,0.0162
1760000028820,50501,0.0293,-0.9707,0.0948,-0.0106,-0.0070,0.0091
1760000028840,50949,0.0176,-0.9778,0.1121,0.0061,0.0369,-0.0069
1760000028860,51602,0.0185,-0.9858,0.1002,-0.0313,0.0025,0.0116
1760000028880,51865,0.0183,-0.9775,0.1020,0.0104,-0.0315,0.0361
1760000028900,52253,0.0160,-0.9814,0.1065,0.0255,-0.0049,-0.0028
1760000028920,52352,0.0202,-0.9783,0.0845,-0.0193,-0.0047,0.0116
1760000028940,52471,0.0155,-0.9748,0.0930,-0.0190,0.0340,0.0256
1760000028960,52335,0.0176,-0.9813,0.0997,0.0028,-0.0068,0.0109
1760000028980,52282,0.0195,-0.9803,0.1088,-0.0137,-0.0063,0.0035
1760000029000,52216,0.0140,-0.9732,0.1020,0.0125,0.0068,0.0170
1760000029020,51737,0.0077,-0.9753,0.1018,0.0151,0.0161,0.0061
1760000029040,51543,0.0222,-0.9742,0.0942,-0.0129,0.0281,-0.0308
1760000029060,51108,0.0192,-0.9799,0.1040,-0.0099,0.0038,-0.0269
1760000029080,50563,0.0148,-0.9730,0.1041,-0.0207,-0.0160,0.0136
1760000029100,50057,0.0228,-0.9840,0.0984,0.0390,-0.0397,0.0395
1760000029120,49425,0.0244,-0.9806,0.1016,-0.0076,0.0181,0.0065
1760000029140,48963,0.0231,-0.9840,0.0996,0.0351,0.0200,0.0178
1760000029160,48718,0.0142,-0.9780,0.1115,-0.0037,-0.0039,0.0068
1760000029180,48162,0.0260,-0.9797,0.0939,-0.0165,0.0113,-0.0066
1760000029200,47825,0.0187,-0.9818,0.1022,-0.0067,-0.0013,0.0388
1760000029220,47722,0.0278,-0.9771,0.0998,0.0069,0.0129,0.0041
1760000029240,47470,0.0217,-0.9817,0.1026,-0.0142,0.0122,-0.0032
1760000029260,47495,0.0135,-0.9793,0.0978,0.0336,0.0067,-0.0059
1760000029280,47559,0.0247,-0.9756,0.0949,0.0217,0.0013,0.0101
1760000029300,47880,0.0210,-0.9831,0.1071,0.0212,0.0022,-0.0274
1760000029320,48031,0.0216,-0.9973,0.0936,0.0036,0.0314,0.0184
1760000029340,48424,0.0237,-0.9794,0.0989,-0.0057,-0.0033,0.0244
1760000029360,49005,0.0205,-0.9845,0.1022,0.0393,-0.0076,-0.0069
1760000029380,49310,0.0168,-0.9808,0.0961,0.0191,0.0101,-0.0081
1760000029400,49886,0.0181,-0.9795,0.0992,0.0019,0.0127,-0.0304
1760000029420,50565,0.0151,-0.9880,0.1023,-0.0307,-0.0052,-0.0147
1760000029440,50997,0.0256,-0.9799,0.0990,0.0026,0.0084,0.0111
1760000029460,51474,0.0171,-0.9798,0.0994,0.0005,-0.0065,0.0167
1760000029480,51917,0.0263,-0.9824,0.0977,0.0048,-0.0197,-0.0186
1760000029500,52180,0.0195,-0.9846,0.0911,-0.0096,0.0190,-0.0209
1760000029520,52461,0.0113,-0.9788,0.1051,0.0107,-0.0187,-0.0166
1760000029540,52435,0.0136,-0.9788,0.0999,0.0157,0.0412,0.0397
1760000029560,52504,0.0120,-0.9833,0.0999,0.0149,0.0146,-0.0359
1760000029580,52244,0.0133,-0.9815,0.1025,-0.0089,-0.0172,-0.0018
1760000029600,52169,0.0208,-0.9901,0.0977,0.0104,0.0196,0.0126
1760000029620,51808,0.0195,-0.9779,0.1007,-0.0173,-0.0256,-0.0248
1760000029640,51431,0.0222,-0.9779,0.1077,0.0254,0.0120,-0.0183
1760000029660,51128,0.0237,-0.9820,0.1017,-0.0217,-0.0266,-0.0422
1760000029680,50568,0.0294,-0.9841,0.1041,-0.0090,-0.0426,-0.0148
1760000029700,50013,0.0145,-0.9776,0.1060,-0.0240,0.0091,-0.0058
1760000029720,49436,0.0227,-0.9759,0.1002,0.0138,-0.0087,-0.0174
1760000029740,48954,0.0169,-0.9859,0.1063,0.0071,0.0193,0.0101
1760000029760,48519,0.0231,-0.9824,0.1023,-0.0055,-0.0157,-0.0024
1760000029780,48079,0.0271,-0.9772,0.1042,0.0156,-0.0184,0.0019
1760000029800,47796,0.0114,-0.9842,0.1086,-0.0291,0.0013,-0.0080
1760000029820,47559,0.0101,-0.9836,0.1050,0.0302,-0.0255,0.0052
1760000029840,47545,0.0275,-0.9853,0.1001,0.0193,0.0244,-0.0052
1760000029860,47499,0.0166,-0.9856,0.0962,-0.0161,-0.0173,-0.0058
1760000029880,47632,0.0211,-0.9809,0.1019,0.0134,-0.0198,-0.0084
1760000029900,47748,0.0262,-0.9912,0.1035,0.0146,-0.0274,-0.0025
1760000029920,48202,0.0218,-0.9749,0.1161,0.0074,-0.0141,0.0222
1760000029940,48530,0.0145,-0.9866,0.0967,-0.0025,-0.0086,0.0388
1760000029960,48987,0.0164,-0.9801,0.1033,-0.0087,0.0002,0.0115
1760000029980,49543,0.0214,-0.9673,0.0923,-0.0142,-0.0123,-0.0300
1760000030000,49982,0.0185,-0.9850,0.0946,0.0301,0.0140,-0.0134
1760000030020,50584,0.0231,-0.9861,0.1053,-0.0160,-0.0259,-0.0214
1760000030040,51017,0.0164,-0.9745,0.0933,-0.0258,-0.0164,-0.0112
1760000030060,51429,0.0184,-0.9825,0.1063,-0.0313,0.0182,0.0068
1760000030080,51938,0.0151,-0.9805,0.0860,-0.0171,0.0232,0.0040
1760000030100,52073,0.0155,-0.9907,0.0976,0.0213,-0.0108,-0.0308
1760000030120,52342,0.0146,-0.9784,0.0969,-0.0204,-0.0371,-0.0309
1760000030140,52490,0.0207,-0.9896,0.1061,-0.0001,0.0063,0.0050
1760000030160,52522,0.0206,-0.9756,0.1050,-0.0103,0.0027,0.0262
1760000030180,52417,0.0193,-0.9773,0.1085,-0.0030,0.0023,0.0065
1760000030200,52169,0.0269,-0.9780,0.1049,0.0075,-0.0226,0.0098
1760000030220,51744,0.0098,-0.9774,0.1020,-0.0135,-0.0199,0.0082
1760000030240,51574,0.0256,-0.9747,0.1018,-0.0295,-0.0062,0.0004
1760000030260,50896,0.0219,-0.9772,0.0932,0.0048,-0.0013,-0.0005
1760000030280,50483,0.0128,-0.9707,0.0935,-0.0166,0.0105,-0.0337
1760000030300,49999,0.0232,-0.9783,0.0997,0.0139,0.0064,0.0145
1760000030320,49478,0.0214,-0.9798,0.0939,0.0338,-0.0267,0.0096
1760000030340,48907,0.0219,-0.9844,0.1049,0.0300,0.0024,-0.0198
1760000030360,48440,0.0242,-0.9843,0.0989,0.0159,0.0146,-0.0067
1760000030380,48182,0.0153,-0.9847,0.1052,0.0024,-0.0287,0.0053
1760000030400,47774,0.0153,-0.9821,0.1077,-0.0024,-0.0057,0.0086
1760000030420,47540,0.0189,-0.9844,0.1036,-0.0067,-0.0025,-0.0064
1760000030440,47601,0.0230,-0.9786,0.1051,0.0048,0.0031,-0.0094
1760000030460,47414,0.0234,-0.9756,0.0973,-0.0241,-0.0017,0.0338
1760000030480,47608,0.0163,-0.9774,0.1100,0.0169,0.0091,0.0132
1760000030500,47845,0.0132,-0.9838,0.0965,0.0089,0.0237,0.0067
1760000030520,48123,0.0195,-0.9876,0.1027,-0.0190,0.0066,-0.0239
1760000030540,48636,0.0233,-0.9771,0.0963,0.0097,0.0128,0.0111
1760000030560,48997,0.0187,-0.9871,0.0987,-0.0236,0.0156,0.0036
1760000030580,49648,0.0244,-0.9859,0.0926,0.0169,0.0006,0.0072
1760000030600,49989,0.0300,-0.9809,0.1015,0.0189,-0.0298,-0.0330
1760000030620,50607,0.0217,-0.9813,0.1008,-0.0016,0.0255,-0.0015
1760000030640,51076,0.0259,-0.9904,0.1069,0.0133,-0.0050,0.0044
1760000030660,51483,0.0191,-0.9808,0.1040,-0.0215,0.0157,-0.0250
1760000030680,51932,0.0203,-0.9851,0.1051,-0.0086,-0.0059,0.0294
1760000030700,52114,0.0143,-0.9896,0.0954,-0.0145,-0.0182,0.0129
1760000030720,52505,0.0177,-0.9840,0.0936,0.0097,0.0089,-0.0313
1760000030740,52467,0.0208,-0.9750,0.0887,0.0103,0.0051,-0.0327
1760000030760,52378,0.0126,-0.9882,0.0929,0.0249,-0.0154,0.0208
1760000030780,52468,0.0167,-0.9819,0.1003,0.0419,0.0082,0.0326
1760000030800,52136,0.0231,-0.9834,0.0957,-0.0125,-0.0177,0.0148
1760000030820,51656,0.0278,-0.9848,0.0937,-0.0126,-0.0226,0.0086
1760000030840,51458,0.0036,-0.9750,0.1003,0.0157,0.0105,-0.0090
1760000030860,50913,0.0158,-0.9842,0.0978,-0.0014,-0.0045,0.0121
1760000030880,50480,0.0204,-0.9819,0.1013,-0.0168,0.0081,-0.0186
1760000030900,49938,0.0242,-0.9775,0.1068,-0.0085,0.0271,0.0198
1760000030920,49603,0.0248,-0.9838,0.1004,-0.0164,0.0055,-0.0010
1760000030940,48977,0.0173,-0.9865,0.0960,0.0120,-0.0058,0.0220
1760000030960,48424,0.0287,-0.9797,0.0908,0.0174,0.0250,-0.0130
1760000030980,48133,0.0202,-0.9826,0.0957,-0.0280,0.0045,0.0133
1760000031000,47917,0.0214,-0.9757,0.0931,-0.0276,0.0289,0.0249
1760000031020,47523,0.0234,-0.9725,0.0982,-0.0112,-0.0024,-0.0175
1760000031040,47647,0.0237,-0.9750,0.1024,0.0126,-0.0160,0.0327
1760000031060,47605,0.0167,-0.9806,0.0924,-0.0072,-0.0088,0.0161
1760000031080,47744,0.0210,-0.9789,0.0967,0.0195,-0.0002,-0.0519
1760000031100,47821,0.0179,-0.9769,0.0990,0.0611,0.0012,0.0154
1760000031120,48134,0.0111,-0.9858,0.0908,-0.0262,0.0120,0.0288
1760000031140,48444,0.0174,-0.9903,0.0978,0.0090,-0.0134,-0.0147
1760000031160,49025,0.0265,-0.9835,0.0950,-0.0104,0.0024,0.0038
1760000031180,49417,0.0222,-0.9748,0.0957,-0.0054,-0.0259,-0.0090
1760000031200,49941,0.0239,-0.9764,0.1082,-0.0153,-0.0218,0.0213
1760000031220,50576,0.0207,-0.9787,0.1049,0.0306,-0.0021,0.0114
1760000031240,51044,0.0189,-0.9789,0.0914,0.0096,-0.0172,-0.0065
1760000031260,51528,0.0149,-0.9777,0.0906,-0.0043,0.0178,0.0127
1760000031280,51799,0.0136,-0.9775,0.0917,0.0060,0.0429,-0.0018
1760000031300,52252,0.0263,-0.9747,0.1030,-0.0204,-0.0205,0.0071
1760000031320,52579,0.0211,-0.9808,0.0974,-0.0322,-0.0090,-0.0107
1760000031340,52653,0.0175,-0.9733,0.1018,-0.0224,0.0316,0.0203
1760000031360,52447,0.0178,-0.9770,0.0896,0.0244,-0.0119,-0.0119
1760000031380,52351,0.0097,-0.9759,0.1001,0.0056,0.0107,-0.0016
1760000031400,52232,0.0215,-0.9778,0.1024,0.0019,0.0113,-0.0330
1760000031420,51808,0.0201,-0.9808,0.0956,-0.0109,0.0043,0.0009
1760000031440,51361,0.0220,-0.9789,0.0987,0.0329,0.0030,-0.0171
1760000031460,51021,0.0227,-0.9784,0.0959,-0.0222,0.0221,-0.0225
1760000031480,50517,0.0246,-0.9747,0.0961,-0.0007,0.0393,-0.0155
1760000031500,49906,0.0140,-0.9759,0.1056,-0.0054,-0.0054,0.0131
1760000031520,49466,0.0157,-0.9859,0.1020,-0.0178,-0.0142,0.0239
1760000031540,48932,0.0221,-0.9764,0.0971,-0.0202,0.0305,0.0002
1760000031560,48620,0.0270,-0.9862,0.1065,0.0156,-0.0282,0.0106
1760000031580,48193,0.0246,-0.9758,0.0909,0.0006,0.0241,0.0131
1760000031600,47821,0.0158,-0.9848,0.1039,0.0061,0.0037,0.0070
1760000031620,47585,0.0136,-0.9777,0.0947,-0.0196,-0.0293,-0.0365
1760000031640,47468,0.0206,-0.9735,0.1055,0.0026,-0.0089,0.0022
1760000031660,47504,0.0204,-0.9762,0.1055,-0.0000,0.0120,-0.0195
1760000031680,47649,0.0255,-0.9883,0.0934,-0.0077,0.0103,0.0231
1760000031700,47885,0.0144,-0.9805,0.0952,0.0203,0.0069,-0.0145
1760000031720,48129,0.0381,-0.9791,0.1067,0.0123,0.0234,-0.0112
1760000031740,48553,0.0105,-0.9813,0.0957,-0.0215,0.0253,-0.0265
1760000031760,49000,0.0197,-0.9738,0.1007,-0.0447,0.0019,-0.0090
1760000031780,49449,0.0194,-0.9845,0.1030,0.0100,-0.0310,-0.0221
1760000031800,50033,0.0189,-0.9798,0.1022,0.0291,0.0047,0.0116
1760000031820,50417,0.0208,-0.9741,0.0984,0.0169,0.0021,-0.0126
1760000031840,50994,0.0322,-0.9788,0.0980,0.0301,0.0298,-0.0177
1760000031860,51451,0.0279,-0.9774,0.1001,0.0041,-0.0014,-0.0413
1760000031880,51998,0.0218,-0.9754,0.0965,0.0064,0.0102,-0.0156
1760000031900,52072,0.0196,-0.9771,0.1027,-0.0304,0.0048,-0.0167
1760000031920,52323,0.0196,-0.9785,0.1006,-0.0240,-0.0148,-0.0200
1760000031940,52482,0.0257,-0.9808,0.1050,-0.0133,-0.0172,-0.0075
1760000031960,52489,0.0221,-0.9774,0.0926,-0.0094,0.0242,-0.0026
1760000031980,52423,0.0233,-0.9868,0.1007,-0.0118,-0.0250,0.0103
1760000032000,52285,0.0186,-0.9825,0.0923,-0.0248,0.0021,-0.0197
1760000032020,51779,0.0152,-0.9878,0.1087,0.0147,0.0116,0.0159
1760000032040,51441,0.0172,-0.9770,0.1043,-0.0271,-0.0157,-0.0238
1760000032060,50922,0.0221,-0.9781,0.1017,-0.0094,0.0269,0.0091
1760000032080,50581,0.0268,-0.9862,0.1003,0.0096,0.0091,-0.0280
1760000032100,49848,0.0161,-0.9781,0.0976,-0.0341,0.0072,-0.0313
1760000032120,49467,0.0299,-0.9876,0.1016,-0.0146,-0.0037,-0.0485
1760000032140,48891,0.0191,-0.9742,0.1055,-0.0141,-0.0442,-0.0001
1760000032160,48630,0.0138,-0.9761,0.1005,0.0208,0.0181,0.0233
1760000032180,48057,0.0177,-0.9744,0.0989,-0.0126,-0.0033,-0.0226
1760000032200,47795,0.0194,-0.9740,0.0936,0.0030,0.0307,-0.0317
1760000032220,47610,0.0210,-0.9916,0.0998,-0.0137,-0.0189,-0.0018
1760000032240,47565,0.0137,-0.9888,0.1006,0.0113,0.0044,-0.0387
1760000032260,47437,0.0259,-0.9853,0.1013,-0.0176,0.0157,-0.0013
1760000032280,47583,0.0268,-0.9853,0.0916,0.0252,0.0128,-0.0220
1760000032300,47727,0.0243,-0.9810,0.1003,0.0208,-0.0094,0.0138
1760000032320,48121,0.0155,-0.9857,0.1082,0.0328,0.0166,0.0148
1760000032340,48592,0.0169,-0.9820,0.0918,-0.0277,-0.0295,0.0014
1760000032360,49001,0.0254,-0.9836,0.0976,-0.0240,0.0060,0.0159
1760000032380,49525,0.0163,-0.9785,0.0933,-0.0348,0.0062,-0.0047
1760000032400,49938,0.0225,-0.9722,0.0944,-0.0109,-0.0009,0.0063
1760000032420,50732,0.0200,-0.9833,0.0925,0.0430,0.0223,-0.0283
1760000032440,51103,0.0183,-0.9734,0.1009,0.0190,-0.0028,0.0155
1760000032460,51320,0.0106,-0.9702,0.0967,-0.0052,-0.0225,-0.0261
1760000032480,51925,0.0271,-0.9772,0.1044,0.0234,0.0070,0.0086
1760000032500,52077,0.0246,-0.9759,0.1054,0.0138,0.0127,-0.0071
1760000032520,52340,0.0211,-0.9801,0.0955,0.0180,-0.0029,0.0453
1760000032540,52438,0.0124,-0.9800,0.1027,-0.0109,0.0030,0.0234
1760000032560,52521,0.0181,-0.9825,0.0887,-0.0002,0.0241,0.0173
1760000032580,52369,0.0044,-0.9824,0.1024,-0.0094,0.0446,-0.0218
1760000032600,52063,0.0207,-0.9865,0.1058,-0.0323,0.0298,0.0347
1760000032620,51754,0.0168,-0.9861,0.1024,-0.0146,-0.0449,-0.0020
1760000032640,51452,0.0177,-0.9847,0.0999,0.0052,0.0113,0.0077
1760000032660,50966,0.0129,-0.9822,0.1068,0.0387,0.0121,-0.0034
1760000032680,50501,0.0221,-0.9866,0.1027,0.0011,0.0246,-0.0436
1760000032700,49954,0.0245,-0.9820,0.1074,0.0080,0.0149,-0.0114
1760000032720,49353,0.0142,-0.9762,0.1024,-0.0076,0.0085,-0.0161
1760000032740,49011,0.0194,-0.9772,0.0945,-0.0290,-0.0002,0.0119
1760000032760,48568,0.0100,-0.9785,0.0992,-0.0014,0.0011,-0.0112
1760000032780,48168,0.0239,-0.9737,0.1041,0.0256,0.0080,0.0112
1760000032800,47819,0.0136,-0.9799,0.1074,0.0143,-0.0099,0.0121
1760000032820,47651,0.0178,-0.9847,0.0999,-0.0463,-0.0145,0.0138
1760000032840,47493,0.0218,-0.9769,0.0890,0.0042,0.0243,0.0053
1760000032860,47475,0.0260,-0.9775,0.1055,0.0180,-0.0347,-0.0235
1760000032880,47625,0.0259,-0.9777,0.1047,0.0214,-0.0064,-0.0113
1760000032900,47805,0.0188,-0.9813,0.0946,0.0140,0.0091,-0.0632
1760000032920,48219,0.0214,-0.9708,0.0992,-0.0236,-0.0024,0.0290
1760000032940,48495,0.0226,-0.9775,0.1071,-0.0216,0.0361,0.0108
1760000032960,48981,0.0102,-0.9804,0.1002,0.0229,0.0015,0.0462
1760000032980,49414,0.0275,-0.9752,0.1022,-0.0397,0.0023,0.0235
1760000033000,50071,0.0227,-0.9784,0.1036,0.0173,0.0023,0.0083
1760000033020,50524,0.0183,-0.9858,0.1032,0.0067,-0.0181,-0.0300
1760000033040,50857,0.0231,-0.9832,0.1030,0.0016,-0.0175,0.0045
1760000033060,51673,0.0317,-0.9831,0.0958,-0.0286,-0.0355,-0.0135
1760000033080,51782,0.0146,-0.9799,0.0937,-0.0393,0.0411,-0.0061
1760000033100,52123,0.0237,-0.9804,0.0975,-0.0359,0.0125,0.0073
1760000033120,52484,0.0251,-0.9857,0.0962,-0.0074,-0.0149,0.0134
1760000033140,52471,0.0188,-0.9784,0.0923,0.0044,0.0245,-0.0017
1760000033160,52461,0.0240,-0.9810,0.1014,0.0178,0.0008,-0.0036
1760000033180,52317,0.0222,-0.9826,0.1006,-0.0353,0.0047,0.0056
1760000033200,52142,0.0226,-0.9817,0.0957,-0.0081,0.0021,0.0005
1760000033220,51877,0.0191,-0.9760,0.1037,-0.0068,0.0141,0.0123
1760000033240,51494,0.0205,-0.9793,0.1020,0.0083,0.0043,0.0021
1760000033260,51057,0.0198,-0.9798,0.1037,0.0149,-0.0047,0.0096
1760000033280,50436,0.0197,-0.9864,0.1030,0.0373,-0.0330,-0.0119
1760000033300,49954,0.0099,-0.9805,0.1020,-0.0032,0.0055,-0.0207
1760000033320,49427,0.0177,-0.9785,0.0994,-0.0186,-0.0083,0.0173
1760000033340,49004,0.0246,-0.9737,0.0984,0.0058,0.0030,0.0103
1760000033360,48562,0.0228,-0.9774,0.0983,0.0109,0.0183,0.0058
1760000033380,48089,0.0209,-0.9826,0.0993,-0.0243,0.0294,-0.0020
1760000033400,47921,0.0322,-0.9858,0.1002,-0.0194,-0.0053,-0.0065
1760000033420,47619,0.0251,-0.9759,0.0973,-0.0047,-0.0210,0.0142
1760000033440,47471,0.0197,-0.9894,0.1066,0.0146,0.0023,-0.0032
1760000033460,47565,0.0189,-0.9826,0.1085,-0.0000,0.0400,0.0206
1760000033480,47658,0.0164,-0.9839,0.1029,-0.0203,-0.0175,0.0133
1760000033500,47860,0.0222,-0.9841,0.1035,-0.0170,0.0313,0.0244
1760000033520,48161,0.0198,-0.9713,0.1028,-0.0423,-0.0125,-0.0016
1760000033540,48564,0.0267,-0.9799,0.1039,-0.0206,0.0212,0.0251
1760000033560,49014,0.0208,-0.9762,0.1001,0.0073,0.0261,0.0131
1760000033580,49440,0.0156,-0.9749,0.0932,0.0124,0.0108,0.0330
1760000033600,49959,0.0247,-0.9875,0.0955,0.0210,-0.0039,-0.0174
1760000033620,50546,0.0154,-0.9801,0.0980,-0.0044,0.0012,-0.0240
1760000033640,51089,0.0129,-0.9795,0.1025,0.0207,0.0448,0.0131
1760000033660,51426,0.0107,-0.9777,0.1058,-0.0037,0.0148,-0.0302
1760000033680,52028,0.0140,-0.9851,0.0974,-0.0509,-0.0272,-0.0073
1760000033700,52161,0.0269,-0.9857,0.1022,-0.0113,0.0373,0.0135
1760000033720,52350,0.0213,-0.9692,0.1083,-0.0025,0.0405,0.0035
1760000033740,52513,0.0206,-0.9732,0.1052,0.0193,-0.0209,-0.0026
1760000033760,52466,0.0235,-0.9866,0.1063,0.0008,0.0184,0.0537
1760000033780,52407,0.0154,-0.9802,0.1081,0.0078,0.0282,-0.0011
1760000033800,52116,0.0164,-0.9779,0.1094,-0.0346,0.0321,-0.0201
1760000033820,51924,0.0213,-0.9724,0.1045,-0.0182,0.0164,0.0009
1760000033840,51401,0.0187,-0.9775,0.1065,-0.0148,-0.0355,-0.0171
1760000033860,51035,0.0245,-0.9877,0.0942,-0.0172,0.0308,-0.0258
1760000033880,50468,0.0237,-0.9768,0.0951,-0.0099,-0.0029,0.0162
1760000033900,50042,0.0195,-0.9736,0.1020,0.0194,0.0006,0.0179
1760000033920,49450,0.0197,-0.9844,0.1024,0.0047,0.0254,-0.0086
1760000033940,48969,0.0182,-0.9909,0.0971,-0.0007,0.0057,-0.0320
1760000033960,48503,0.0179,-0.9807,0.1016,-0.0275,-0.0301,-0.0174
1760000033980,48173,0.0200,-0.9784,0.1057,-0.0059,0.0559,-0.0006
1760000034000,47802,0.0098,-0.9769,0.1019,-0.0152,-0.0382,-0.0157
1760000034020,47576,0.0140,-0.9803,0.1060,0.0035,-0.0029,0.0153
1760000034040,47559,0.0113,-0.9917,0.1025,0.0210,-0.0096,0.0242
1760000034060,47559,0.0194,-0.9776,0.1060,-0.0147,-0.0216,-0.0138
1760000034080,47722,0.0188,-0.9778,0.1022,0.0077,0.0211,0.0333
1760000034100,47830,0.0225,-0.9879,0.0961,-0.0181,-0.0104,0.0022
1760000034120,48266,0.0141,-0.9749,0.1034,-0.0277,-0.0230,0.0224
1760000034140,48578,0.0183,-0.9842,0.0945,0.0118,0.0025,-0.0398
1760000034160,49083,0.0276,-0.9814,0.0968,-0.0190,0.0082,-0.0308
1760000034180,49480,0.0301,-0.9714,0.1005,-0.0241,-0.0263,0.0378
1760000034200,50014,0.0156,-0.9742,0.1001,0.0102,-0.0156,0.0203
1760000034220,50621,0.0191,-0.9847,0.0985,-0.0144,-0.0081,0.0482
1760000034240,51021,0.0249,-0.9729,0.0989,0.0033,-0.0211,0.0071
1760000034260,51325,0.0218,-0.9745,0.1065,0.0015,0.0066,0.0088
1760000034280,51734,0.0200,-0.9811,0.0978,-0.0162,0.0035,-0.0166
1760000034300,52053,0.0139,-0.9848,0.1059,-0.0215,0.0024,0.0241
1760000034320,52333,0.0207,-0.9864,0.1034,-0.0027,0.0298,0.0262
1760000034340,52463,0.0175,-0.9741,0.1007,-0.0157,-0.0008,-0.0074
1760000034360,52531,0.0155,-0.9755,0.0970,-0.0216,-0.0124,0.0079
1760000034380,52418,0.0208,-0.9766,0.0895,-0.0079,-0.0035,0.0089
1760000034400,52135,0.0142,-0.9686,0.1001,-0.0102,-0.0058,-0.0133
1760000034420,51824,0.0196,-0.9804,0.0982,-0.0322,0.0112,0.0078
1760000034440,51396,0.0222,-0.9805,0.0964,-0.0270,-0.0129,-0.0005
1760000034460,50897,0.0181,-0.9774,0.1028,0.0146,-0.0137,0.0115
1760000034480,50526,0.0140,-0.9704,0.1018,-0.0044,-0.0204,-0.0121
1760000034500,49876,0.0239,-0.9759,0.0917,0.0078,0.0281,0.0099
1760000034520,49570,0.0138,-0.9842,0.1000,-0.0143,0.0198,0.0199
1760000034540,48964,0.0244,-0.9906,0.1013,0.0023,0.0433,-0.0448
1760000034560,48655,0.0169,-0.9820,0.0927,0.0139,0.0349,-0.0224
1760000034580,48243,0.0209,-0.9752,0.0949,0.0128,-0.0304,-0.0295
1760000034600,47799,0.0080,-0.9806,0.1013,0.0217,0.0037,-0.0209
1760000034620,47493,0.0156,-0.9771,0.1026,-0.0076,-0.0225,0.0036
1760000034640,47486,0.0249,-0.9827,0.0979,0.0208,-0.0028,-0.0081
1760000034660,47533,0.0256,-0.9810,0.1152,0.0082,0.0053,-0.0168
1760000034680,47680,0.0255,-0.9797,0.1110,0.0235,-0.0300,0.0075
1760000034700,47930,0.0226,-0.9792,0.0994,0.0122,-0.0189,0.0456
1760000034720,48128,0.0301,-0.9819,0.0902,0.0065,-0.0110,0.0419
1760000034740,48405,0.0211,-0.9809,0.1020,-0.0106,-0.0123,0.0068
1760000034760,48964,0.0201,-0.9721,0.0994,0.0139,-0.0077,0.0455
1760000034780,49552,0.0097,-0.9802,0.0969,-0.0086,0.0133,0.0259
1760000034800,49974,0.0112,-0.9740,0.1027,-0.0170,-0.0182,-0.0307
1760000034820,50643,0.0140,-0.9844,0.1031,0.0079,-0.0223,0.0233
1760000034840,50966,0.0201,-0.9784,0.0941,0.0056,-0.0221,0.0229
1760000034860,51474,0.0225,-0.9880,0.0950,-0.0240,0.0359,0.0114
1760000034880,51924,0.0237,-0.9780,0.1034,-0.0035,-0.0164,-0.0003
1760000034900,52230,0.0191,-0.9739,0.0950,-0.0184,0.0140,-0.0182
1760000034920,52422,0.0161,-0.9767,0.1049,-0.0124,0.0128,0.0011
1760000034940,52386,0.0106,-0.9850,0.0979,-0.0038,0.0221,0.0040
1760000034960,52592,0.0249,-0.9783,0.1022,0.0197,0.0198,0.0132
1760000034980,52359,0.0194,-0.9857,0.0929,-0.0246,0.0010,-0.0369
1760000035000,51978,0.0258,-0.9739,0.0939,0.0068,0.0103,0.0257
1760000035020,51918,0.0143,-0.9772,0.0952,0.0073,0.0036,-0.0033
1760000035040,51486,0.0219,-0.9867,0.0995,0.0327,-0.0267,-0.0378
1760000035060,50978,0.0184,-0.9852,0.0947,-0.0137,-0.0242,-0.0227
1760000035080,50449,0.0248,-0.9769,0.1036,-0.0212,-0.0037,-0.0384
1760000035100,49990,0.0192,-0.9773,0.1010,-0.0457,-0.0432,0.0073
1760000035120,49569,0.0216,-0.9764,0.0999,0.0197,-0.0526,-0.0154
1760000035140,49000,0.0122,-0.9803,0.0929,-0.0221,-0.0337,0.0122
1760000035160,48627,0.0189,-0.9813,0.1069,-0.0110,-0.0015,-0.0123
1760000035180,48096,0.0192,-0.9832,0.1039,0.0381,0.0017,-0.0297
1760000035200,47888,0.0155,-0.9822,0.0930,0.0052,-0.0264,-0.0030
1760000035220,47611,0.0247,-0.9851,0.0989,0.0074,0.0222,-0.0331
1760000035240,47461,0.0154,-0.9830,0.1041,-0.0446,-0.0038,-0.0091
1760000035260,47518,0.0202,-0.9858,0.1056,-0.0379,0.0377,0.0117
1760000035280,47500,0.0251,-0.9747,0.0980,0.0262,-0.0085,0.0078
1760000035300,47837,0.0138,-0.9757,0.1011,0.0093,0.0018,0.0189
1760000035320,48075,0.0238,-0.9881,0.1025,0.0151,0.0218,0.0099
1760000035340,48574,0.0127,-0.9742,0.0941,0.0007,0.0148,-0.0157
1760000035360,49133,0.0159,-0.9641,0.1075,0.0323,-0.0401,0.0084
1760000035380,49611,0.0089,-0.9755,0.1018,-0.0202,-0.0087,0.0180
1760000035400,50132,0.0261,-0.9867,0.1022,0.0311,-0.0023,-0.0177
1760000035420,50419,0.0179,-0.9729,0.1065,-0.0162,0.0003,-0.0389
1760000035440,51027,0.0236,-0.9714,0.1014,-0.0319,-0.0089,-0.0117
1760000035460,51462,0.0187,-0.9794,0.0931,-0.0124,-0.0360,0.0001
1760000035480,51831,0.0254,-0.9859,0.1126,-0.0126,-0.0028,-0.0390
1760000035500,52144,0.0162,-0.9833,0.1067,-0.0043,-0.0206,-0.0065
1760000035520,52347,0.0190,-0.9788,0.0949,0.0288,0.0119,0.0389
1760000035540,52410,0.0207,-0.9805,0.1048,0.0163,-0.0104,0.0042
1760000035560,52414,0.0229,-0.9690,0.0930,0.0180,0.0070,-0.0332
1760000035580,52422,0.0212,-0.9873,0.0975,0.0330,-0.0015,0.0157
1760000035600,52126,0.0229,-0.9781,0.0953,0.0094,0.0420,0.0135
1760000035620,51778,0.0215,-0.9780,0.1056,0.0056,0.0097,0.0021
1760000035640,51575,0.0146,-0.9883,0.1088,0.0112,-0.0047,-0.0116
1760000035660,50933,0.0156,-0.9808,0.1040,0.0059,-0.0055,0.0120
1760000035680,50588,0.0150,-0.9876,0.0975,0.0038,-0.0309,-0.0052
1760000035700,50066,0.0230,-0.9842,0.0976,-0.0078,-0.0426,0.0320
1760000035720,49554,0.0117,-0.9764,0.1067,-0.0036,-0.0313,0.0270
1760000035740,48938,0.0157,-0.9756,0.1018,-0.0164,0.0126,-0.0134
1760000035760,48564,0.0198,-0.9912,0.1022,-0.0010,-0.0122,-0.0302
1760000035780,48014,0.0189,-0.9793,0.1109,0.0123,-0.0088,-0.0159
1760000035800,47674,0.0202,-0.9794,0.1048,0.0368,0.0032,0.0221
1760000035820,47492,0.0219,-0.9892,0.1001,0.0215,-0.0094,0.0066
1760000035840,47374,0.0137,-0.9785,0.0921,0.0007,-0.0043,-0.0023
1760000035860,47582,0.0233,-0.9883,0.1061,-0.0047,-0.0146,0.0446
1760000035880,47603,0.0240,-0.9748,0.0993,0.0160,0.0222,0.0073
1760000035900,47768,0.0271,-0.9861,0.1021,-0.0113,0.0135,0.0153
1760000035920,48062,0.0210,-0.9837,0.0959,0.0004,0.0193,0.0075
1760000035940,48438,0.0175,-0.9748,0.1020,-0.0136,-0.0046,0.0107
1760000035960,48994,0.0181,-0.9782,0.1005,-0.0146,-0.0100,-0.0264
1760000035980,49420,0.0184,-0.9819,0.1125,-0.0186,-0.0149,0.0043
1760000036000,50108,0.0180,-0.9768,0.0980,-0.0128,0.0020,-0.0159
1760000036020,50565,0.0203,-0.9783,0.0932,0.0060,0.0304,0.0280
1760000036040,51017,0.0225,-0.9805,0.0994,0.0184,0.0236,-0.0349
1760000036060,51473,0.0178,-0.9806,0.0939,-0.0033,0.0229,0.0518
1760000036080,51832,0.0189,-0.9761,0.0991,-0.0178,-0.0057,-0.0032
1760000036100,52196,0.0270,-0.9797,0.1024,0.0284,-0.0347,0.0091
1760000036120,52405,0.0244,-0.9860,0.0988,-0.0081,-0.0280,-0.0302
1760000036140,52455,0.0151,-0.9766,0.1019,-0.0332,-0.0007,0.0293
1760000036160,52512,0.0149,-0.9732,0.1008,0.0372,0.0204,0.0472
1760000036180,52250,0.0185,-0.9835,0.1046,-0.0159,0.0211,0.0005
1760000036200,52181,0.0244,-0.9736,0.0944,0.0391,0.0314,-0.0161
1760000036220,51839,0.0208,-0.9759,0.0986,0.0164,-0.0307,0.0048
1760000036240,51446,0.0243,-0.9829,0.0971,0.0171,-0.0265,-0.0043
1760000036260,51041,0.0209,-0.9841,0.1031,0.0151,0.0366,0.0171
1760000036280,50718,0.0172,-0.9809,0.0977,-0.0022,0.0521,0.0370
1760000036300,49980,0.0237,-0.9839,0.0967,0.0283,0.0273,0.0072
1760000036320,49432,0.0156,-0.9701,0.1021,0.0082,-0.0006,-0.0173
1760000036340,49005,0.0136,-0.9791,0.1033,-0.0065,0.0257,-0.0048
1760000036360,48481,0.0299,-0.9919,0.0984,-0.0195,0.0211,0.0257
1760000036380,48182,0.0231,-0.9786,0.0951,0.0413,-0.0228,0.0232
1760000036400,47706,0.0195,-0.9732,0.1023,0.0211,0.0214,-0.0116
1760000036420,47631,0.0294,-0.9877,0.1000,0.0027,-0.0436,-0.0255
1760000036440,47568,0.0178,-0.9848,0.1009,0.0156,0.0142,0.0045
1760000036460,47488,0.0164,-0.9728,0.1053,-0.0016,-0.0015,-0.0302
1760000036480,47441,0.0127,-0.9728,0.1009,0.0232,0.0243,0.0203
1760000036500,47763,0.0254,-0.9825,0.0972,-0.0110,0.0028,-0.0024
1760000036520,48221,0.0180,-0.9788,0.1003,0.0244,0.0075,0.0251
1760000036540,48492,0.0159,-0.9758,0.1005,0.0032,0.0163,0.0150
1760000036560,49008,0.0181,-0.9939,0.1070,-0.0115,-0.0011,0.0271
1760000036580,49407,0.0158,-0.9833,0.0973,0.0037,0.0475,0.0432
1760000036600,49907,0.0188,-0.9790,0.0975,-0.0126,-0.0115,-0.0104
1760000036620,50607,0.0173,-0.9645,0.1019,0.0207,0.0078,0.0005
1760000036640,50940,0.0214,-0.9736,0.0967,0.0073,0.0092,0.0130
1760000036660,51496,0.0159,-0.9847,0.1024,-0.0102,0.0227,-0.0013
1760000036680,51828,0.0246,-0.9790,0.0952,0.0057,-0.0297,-0.0391
1760000036700,52257,0.0223,-0.9772,0.1021,-0.0048,0.0035,-0.0100
1760000036720,52259,0.0152,-0.9708,0.0988,0.0003,0.0072,-0.0030
1760000036740,52412,0.0177,-0.9797,0.1055,0.0176,0.0284,-0.0251
1760000036760,52551,0.0184,-0.9852,0.1078,-0.0075,0.0140,0.0114
1760000036780,52501,0.0130,-0.9752,0.0948,-0.0035,-0.0089,0.0116
1760000036800,52165,0.0203,-0.9878,0.0966,0.0342,-0.0168,-0.0122
1760000036820,51877,0.0194,-0.9781,0.0937,0.0228,-0.0238,0.0270
1760000036840,51427,0.0130,-0.9842,0.1026,-0.0026,0.0071,0.0145
1760000036860,50983,0.0201,-0.9739,0.1076,0.0201,0.0152,0.0492
1760000036880,50469,0.0197,-0.9779,0.1014,0.0149,-0.0116,0.0359
1760000036900,49994,0.0156,-0.9727,0.0929,0.0059,0.0000,0.0172
1760000036920,49389,0.0184,-0.9839,0.1051,0.0062,0.0228,-0.0354
1760000036940,49054,0.0149,-0.9818,0.1000,0.0047,-0.0240,0.0067
1760000036960,48570,0.0281,-0.9781,0.1030,-0.0220,0.0084,-0.0143
1760000036980,48095,0.0207,-0.9702,0.1060,0.0042,0.0028,0.0180
1760000037000,47889,0.0185,-0.9736,0.1021,0.0239,0.0106,-0.0403
1760000037020,47631,0.0120,-0.9712,0.1019,-0.0087,0.0036,0.0055
1760000037040,47562,0.0215,-0.9870,0.1019,-0.0274,0.0415,0.0171
1760000037060,47431,0.0212,-0.9818,0.0998,-0.0167,0.0176,0.0232
1760000037080,47480,0.0232,-0.9785,0.0939,-0.0287,-0.0028,0.0477
1760000037100,47882,0.0162,-0.9767,0.1035,-0.0162,-0.0068,-0.0309
1760000037120,48082,0.0219,-0.9837,0.0994,-0.0123,-0.0093,0.0235
1760000037140,48579,0.0232,-0.9889,0.1011,-0.0340,-0.0128,0.0078
1760000037160,48993,0.0147,-0.9753,0.1005,0.0011,0.0074,-0.0389
1760000037180,49580,0.0180,-0.9800,0.1024,0.0052,-0.0205,0.0057
